File: inn/kurimoto_2004/450C/raman/curve_1_fit.dat
414.631,0.0935511
414.731,0.0968527
414.831,0.100311
414.931,0.103934
415.031,0.107731
415.131,0.11171
415.231,0.115881
415.331,0.120253
415.431,0.124837
415.531,0.129642
415.631,0.134679
415.731,0.139957
415.831,0.145487
415.931,0.151279
416.031,0.157342
416.131,0.163685
416.231,0.170316
416.331,0.177241
416.431,0.184466
416.531,0.191994
416.631,0.199824
416.731,0.207955
416.831,0.21638
416.931,0.225089
417.031,0.234064
417.131,0.243285
417.231,0.252722
417.331,0.262339
417.431,0.272091
417.531,0.281924
417.631,0.291774
417.731,0.301569
417.831,0.311224
417.931,0.320649
418.031,0.329742
418.131,0.338397
418.231,0.346503
418.331,0.353947
418.431,0.360618
418.531,0.366408
418.631,0.371222
418.731,0.374974
418.831,0.377595
418.931,0.379038
419.031,0.379275
419.131,0.378315
419.231,0.376178
419.331,0.372906
419.431,0.368557
419.531,0.363207
419.631,0.356948
419.731,0.34988
419.831,0.34211
419.931,0.333749
420.031,0.324907
420.131,0.31569
420.231,0.3062
420.331,0.29653
420.431,0.286767
420.531,0.276987
420.631,0.267257
420.731,0.257634
420.831,0.248166
420.931,0.238894
421.031,0.22985
421.131,0.221058
421.231,0.212538
421.331,0.204303
421.431,0.196361
421.531,0.188716
421.631,0.181371
421.731,0.174322
421.831,0.167568
421.931,0.161101
422.031,0.154914
422.131,0.149001
422.231,0.143351
422.331,0.137956
422.431,0.132805
422.531,0.127889
422.631,0.123197
422.731,0.11872
422.831,0.114448
422.931,0.110371
423.031,0.106481
423.131,0.102767
423.231,0.0992222
423.331,0.095837
423.431,0.0926038
423.531,0.089515
423.631,0.0865632
423.731,0.0837415
423.831,0.0810433
423.931,0.0784623
424.031,0.0759925
424.131,0.0736284
424.231,0.0713646
424.331,0.0691959
424.431,0.0671178
424.531,0.0651255
424.631,0.0632148
424.731,0.0613817
424.831,0.0596223
424.931,0.057933
425.031,0.0563105
425.131,0.0547514
425.231,0.0532527
425.331,0.0518116
425.431,0.0504252
425.531,0.0490911
425.631,0.0478067
425.731,0.0465698
425.831,0.0453781
425.931,0.0442296
426.031,0.0431223
426.131,0.0420545
426.231,0.0410242
426.331,0.0400299
426.431,0.0390699
426.531,0.0381428
426.631,0.0372471
426.731,0.0363815
426.831,0.0355447
426.931,0.0347356
427.031,0.0339528
427.131,0.0331954
427.231,0.0324623
427.331,0.0317524
427.431,0.0310649
427.531,0.0303989
427.631,0.0297535
427.731,0.0291278
427.831,0.0285212
427.931,0.0279328
428.031,0.0273619
428.131,0.026808
428.231,0.0262703
428.331,0.0257482
428.431,0.0252412
428.531,0.0247487
428.631,0.0242701
428.731,0.0238049
428.831,0.0233528
428.931,0.0229131
429.031,0.0224854
429.131,0.0220694
429.231,0.0216646
429.331,0.0212706
429.431,0.020887
429.531,0.0205136
429.631,0.0201499
429.731,0.0197956
429.831,0.0194504
429.931,0.0191139
430.031,0.018786
430.131,0.0184663
430.231,0.0181546
430.331,0.0178506
430.431,0.017554
430.531,0.0172647
430.631,0.0169823
430.731,0.0167067
430.831,0.0164376
430.931,0.0161749
431.031,0.0159184
431.131,0.0156678
431.231,0.015423
431.331,0.0151838
431.431,0.0149501
431.531,0.0147217
431.631,0.0144984
431.731,0.01428
431.831,0.0140665
431.931,0.0138577
432.031,0.0136534
432.131,0.0134536
432.231,0.0132581
432.331,0.0130668
432.431,0.0128795
432.531,0.0126962
432.631,0.0125167
432.731,0.0123409
432.831,0.0121688
432.931,0.0120002
433.031,0.0118351
433.131,0.0116733
433.231,0.0115148
433.331,0.0113595
433.431,0.0112072
433.531,0.011058
433.631,0.0109116
433.731,0.0107682
433.831,0.0106275
433.931,0.0104896
434.031,0.0103542
434.131,0.0102215
434.231,0.0100913
434.331,0.00996351
434.431,0.00983812
434.531,0.00971507
434.631,0.00959429
434.731,0.00947574
434.831,0.00935934
434.931,0.00924506
435.031,0.00913285
435.131,0.00902265
435.231,0.00891441
435.331,0.0088081
435.431,0.00870366
435.531,0.00860106
435.631,0.00850024
435.731,0.00840118
435.831,0.00830382
435.931,0.00820813
436.031,0.00811408
436.131,0.00802162
436.231,0.00793072
436.331,0.00784135
436.431,0.00775347
436.531,0.00766705
436.631,0.00758205
436.731,0.00749845
436.831,0.00741622
436.931,0.00733532
437.031,0.00725574
437.131,0.00717743
437.231,0.00710037
437.331,0.00702454
437.431,0.00694992
437.531,0.00687646
437.631,0.00680416
437.731,0.00673299
437.831,0.00666292
437.931,0.00659393
438.031,0.00652601
438.131,0.00645912
438.231,0.00639325
438.331,0.00632837
438.431,0.00626447
438.531,0.00620153
438.631,0.00613953
438.731,0.00607845
438.831,0.00601827
438.931,0.00595898
439.031,0.00590055
439.131,0.00584297
439.231,0.00578623
439.331,0.00573031
439.431,0.00567518
439.531,0.00562085
439.631,0.00556729
439.731,0.00551449
439.831,0.00546243
439.931,0.0054111
440.031,0.00536049
440.131,0.00531058
440.231,0.00526136
440.331,0.00521282
440.431,0.00516495
440.531,0.00511773
440.631,0.00507115
440.731,0.0050252
440.831,0.00497987
440.931,0.00493515
441.031,0.00489102
441.131,0.00484749
441.231,0.00480452
441.331,0.00476213
441.431,0.00472029
441.531,0.004679
441.631,0.00463824
441.731,0.00459801
441.831,0.0045583
441.931,0.00451911
442.031,0.00448041
442.131,0.00444221
442.231,0.00440449
442.331,0.00436724
442.431,0.00433047
442.531,0.00429416
442.631,0.0042583
442.731,0.00422288
442.831,0.00418791
442.931,0.00415336
443.031,0.00411924
443.131,0.00408554
443.231,0.00405224
443.331,0.00401935
443.431,0.00398686
443.531,0.00395476
443.631,0.00392304
443.731,0.00389171
443.831,0.00386074
443.931,0.00383014
444.031,0.00379991
444.131,0.00377003
444.231,0.0037405
444.331,0.00371131
444.431,0.00368246
444.531,0.00365395
444.631,0.00362576
444.731,0.0035979
444.831,0.00357036
444.931,0.00354313
445.031,0.00351621
445.131,0.0034896
445.231,0.00346328
445.331,0.00343727
445.431,0.00341154
445.531,0.0033861
445.631,0.00336094
445.731,0.00333606
445.831,0.00331146
445.931,0.00328712
446.031,0.00326306
446.131,0.00323925
446.231,0.0032157
446.331,0.00319241
446.431,0.00316937
446.531,0.00314658
446.631,0.00312403
446.731,0.00310173
446.831,0.00307966
446.931,0.00305782
447.031,0.00303622
447.131,0.00301484
447.231,0.00299369
447.331,0.00297276
447.431,0.00295204
447.531,0.00293154
447.631,0.00291126
447.731,0.00289118
447.831,0.00287131
447.931,0.00285165
448.031,0.00283218
448.131,0.00281291
448.231,0.00279384
448.331,0.00277496
448.431,0.00275627
448.531,0.00273777
448.631,0.00271946
448.731,0.00270132
448.831,0.00268337
448.931,0.00266559
449.031,0.002648
449.131,0.00263057
449.231,0.00261331
449.331,0.00259623
449.431,0.00257931
449.531,0.00256255
449.631,0.00254596
449.731,0.00252953
449.831,0.00251325
449.931,0.00249714
450.031,0.00248117
450.131,0.00246536
450.231,0.0024497
450.331,0.00243419
450.431,0.00241882
450.531,0.0024036
450.631,0.00238852
450.731,0.00237358
450.831,0.00235879
450.931,0.00234413
451.031,0.0023296
451.131,0.00231521
451.231,0.00230096
451.331,0.00228683
451.431,0.00227283
451.531,0.00225896
451.631,0.00224522
451.731,0.0022316
451.831,0.00221811
451.931,0.00220474
452.031,0.00219148
452.131,0.00217835
452.231,0.00216533
452.331,0.00215243
452.431,0.00213965
452.531,0.00212698
452.631,0.00211442
452.731,0.00210197
452.831,0.00208963
452.931,0.0020774
453.031,0.00206527
453.131,0.00205325
453.231,0.00204134
453.331,0.00202953
453.431,0.00201782
453.531,0.00200621
453.631,0.0019947
453.731,0.00198329
453.831,0.00197198
453.931,0.00196076
454.031,0.00194964
454.131,0.00193861
454.231,0.00192768
454.331,0.00191684
454.431,0.00190609
454.531,0.00189542
454.631,0.00188485
454.731,0.00187437
454.831,0.00186397
454.931,0.00185366
455.031,0.00184344
455.131,0.0018333
455.231,0.00182324
455.331,0.00181326
455.431,0.00180337
455.531,0.00179356
455.631,0.00178382
455.731,0.00177417
455.831,0.00176459
455.931,0.00175509
456.031,0.00174567
456.131,0.00173632
456.231,0.00172705
456.331,0.00171785
456.431,0.00170873
456.531,0.00169967
456.631,0.00169069
456.731,0.00168178
456.831,0.00167294
456.931,0.00166417
457.031,0.00165547
457.131,0.00164683
457.231,0.00163827
457.331,0.00162977
457.431,0.00162133
457.531,0.00161296
457.631,0.00160466
457.731,0.00159642
457.831,0.00158824
457.931,0.00158013
458.031,0.00157207
458.131,0.00156408
458.231,0.00155615
458.331,0.00154828
458.431,0.00154047
458.531,0.00153272
458.631,0.00152502
458.731,0.00151739
458.831,0.00150981
458.931,0.00150228
459.031,0.00149482
459.131,0.0014874
459.231,0.00148005
459.331,0.00147275
459.431,0.0014655
459.531,0.0014583
459.631,0.00145116
459.731,0.00144407
459.831,0.00143703
459.931,0.00143005
460.031,0.00142311
460.131,0.00141622
460.231,0.00140939
460.331,0.0014026
460.431,0.00139586
460.531,0.00138917
460.631,0.00138253
460.731,0.00137594
460.831,0.00136939
460.931,0.00136289
461.031,0.00135644
461.131,0.00135003
461.231,0.00134367
461.331,0.00133735
461.431,0.00133107
461.531,0.00132484
461.631,0.00131866
461.731,0.00131251
461.831,0.00130641
461.931,0.00130035
462.031,0.00129434
462.131,0.00128836
462.231,0.00128243
462.331,0.00127654
462.431,0.00127068
462.531,0.00126487
462.631,0.0012591
462.731,0.00125337
462.831,0.00124767
462.931,0.00124202
463.031,0.0012364
463.131,0.00123082
463.231,0.00122528
463.331,0.00121978
463.431,0.00121431
463.531,0.00120888
463.631,0.00120349
463.731,0.00119813
463.831,0.00119281
463.931,0.00118752
464.031,0.00118227
464.131,0.00117705
464.231,0.00117187
464.331,0.00116672
464.431,0.0011616
464.531,0.00115652
464.631,0.00115147
464.731,0.00114646
464.831,0.00114148
464.931,0.00113653
465.031,0.00113161
465.131,0.00112672
465.231,0.00112187
465.331,0.00111704
465.431,0.00111225
465.531,0.00110749
465.631,0.00110276
465.731,0.00109806
465.831,0.00109339
465.931,0.00108874
466.031,0.00108413
466.131,0.00107955
466.231,0.001075
466.331,0.00107047
466.431,0.00106598
466.531,0.00106151
466.631,0.00105707
466.731,0.00105265
466.831,0.00104827
466.931,0.00104391
467.031,0.00103958
467.131,0.00103528
467.231,0.001031
467.331,0.00102675
467.431,0.00102253
467.531,0.00101833
467.631,0.00101416
467.731,0.00101001
467.831,0.00100589
467.931,0.00100179
468.031,0.000997719
468.131,0.000993672
468.231,0.00098965
468.331,0.000985652
468.431,0.000981678
468.531,0.000977729
468.631,0.000973803
468.731,0.0009699
468.831,0.000966021
468.931,0.000962166
469.031,0.000958333
469.131,0.000954523
469.231,0.000950736
469.331,0.000946971
469.431,0.000943228
469.531,0.000939508
469.631,0.00093581
469.731,0.000932133
469.831,0.000928478
469.931,0.000924844
470.031,0.000921232
470.131,0.000917641
470.231,0.00091407
470.331,0.000910521
470.431,0.000906992
470.531,0.000903484
470.631,0.000899996
470.731,0.000896528
470.831,0.00089308
470.931,0.000889651
471.031,0.000886243
471.131,0.000882854
471.231,0.000879485
471.331,0.000876134
471.431,0.000872803
471.531,0.000869491
471.631,0.000866197
471.731,0.000862923
471.831,0.000859666
471.931,0.000856428
472.031,0.000853209
472.131,0.000850007
472.231,0.000846824
472.331,0.000843658
472.431,0.00084051
472.531,0.000837379
472.631,0.000834266
472.731,0.000831171
472.831,0.000828092
472.931,0.000825031
473.031,0.000821986
473.131,0.000818959
473.231,0.000815948
473.331,0.000812953
473.431,0.000809975
473.531,0.000807013
473.631,0.000804068
473.731,0.000801139
473.831,0.000798225
473.931,0.000795328
474.031,0.000792446
474.131,0.00078958
474.231,0.000786729
474.331,0.000783894
474.431,0.000781073
474.531,0.000778269
474.631,0.000775479
474.731,0.000772704
474.831,0.000769944
474.931,0.000767199
475.031,0.000764468
475.131,0.000761752
475.231,0.000759051
475.331,0.000756364
475.431,0.000753691
475.531,0.000751032
475.631,0.000748387
475.731,0.000745756
475.831,0.000743139
475.931,0.000740536
476.031,0.000737946
476.131,0.00073537
476.231,0.000732807
476.331,0.000730258
476.431,0.000727722
476.531,0.000725199
476.631,0.000722689
476.731,0.000720193
476.831,0.000717709
476.931,0.000715238
477.031,0.00071278
477.131,0.000710334
477.231,0.000707901
477.331,0.00070548
477.431,0.000703072
477.531,0.000700676
477.631,0.000698292
477.731,0.000695921
477.831,0.000693561
477.931,0.000691214
478.031,0.000688878
478.131,0.000686554
478.231,0.000684242
478.331,0.000681942
478.431,0.000679653
478.531,0.000677375
478.631,0.000675109
478.731,0.000672855
478.831,0.000670611
478.931,0.000668379
479.031,0.000666158
479.131,0.000663948
479.231,0.000661749
479.331,0.000659561
479.431,0.000657384
479.531,0.000655217
479.631,0.000653061
479.731,0.000650916
479.831,0.000648782
479.931,0.000646657
480.031,0.000644544
480.131,0.00064244
480.231,0.000640347
480.331,0.000638264
480.431,0.000636191
480.531,0.000634128
480.631,0.000632076
480.731,0.000630033
480.831,0.000628
480.931,0.000625977
481.031,0.000623963
481.131,0.00062196
481.231,0.000619966
481.331,0.000617981
481.431,0.000616006
481.531,0.000614041
481.631,0.000612085
481.731,0.000610138
481.831,0.0006082
481.931,0.000606272
482.031,0.000604353
482.131,0.000602443
482.231,0.000600542
482.331,0.00059865
482.431,0.000596767
482.531,0.000594893
482.631,0.000593027
482.731,0.00059117
482.831,0.000589322
482.931,0.000587483
483.031,0.000585652
483.131,0.00058383
483.231,0.000582016
483.331,0.000580211
483.431,0.000578414
483.531,0.000576626
483.631,0.000574845
483.731,0.000573073
483.831,0.000571309
483.931,0.000569554
484.031,0.000567806
484.131,0.000566066
484.231,0.000564335
484.331,0.000562611
484.431,0.000560895
484.531,0.000559187
484.631,0.000557487
484.731,0.000555794
484.831,0.000554109
484.931,0.000552432
485.031,0.000550763
485.131,0.000549101
485.231,0.000547446
485.331,0.000545799
485.431,0.000544159
485.531,0.000542527
485.631,0.000540902
485.731,0.000539285
485.831,0.000537674
485.931,0.000536071
486.031,0.000534475
486.131,0.000532886
486.231,0.000531304
486.331,0.000529729
486.431,0.000528162
486.531,0.000526601
486.631,0.000525047
486.731,0.0005235
486.831,0.000521959
486.931,0.000520426
487.031,0.000518899
487.131,0.000517379
487.231,0.000515866
487.331,0.000514359
487.431,0.000512859
487.531,0.000511365
487.631,0.000509878
487.731,0.000508397
487.831,0.000506923
487.931,0.000505455
488.031,0.000503994
488.131,0.000502539
488.231,0.00050109
488.331,0.000499647
488.431,0.000498211
488.531,0.000496781
488.631,0.000495357
488.731,0.000493939
488.831,0.000492527
488.931,0.000491121
489.031,0.000489722
489.131,0.000488328
489.231,0.00048694
489.331,0.000485558
489.431,0.000484182
489.531,0.000482812
489.631,0.000481447
489.731,0.000480088
489.831,0.000478735
489.931,0.000477388
490.031,0.000476047
490.131,0.000474711
490.231,0.000473381
490.331,0.000472056
490.431,0.000470737
490.531,0.000469423
490.631,0.000468115
490.731,0.000466812
490.831,0.000465515
490.931,0.000464223
491.031,0.000462937
491.131,0.000461655
491.231,0.00046038
491.331,0.000459109
491.431,0.000457844
491.531,0.000456584
491.631,0.000455329
491.731,0.000454079
491.831,0.000452834
491.931,0.000451595
492.031,0.00045036
492.131,0.000449131
492.231,0.000447907
492.331,0.000446687
492.431,0.000445473
492.531,0.000444264
492.631,0.000443059
492.731,0.000441859
492.831,0.000440665
492.931,0.000439475
493.031,0.00043829
493.131,0.000437109
493.231,0.000435934
493.331,0.000434763
493.431,0.000433597
493.531,0.000432435
493.631,0.000431279
493.731,0.000430126
493.831,0.000428979
493.931,0.000427836
494.031,0.000426698
494.131,0.000425564
494.231,0.000424434
494.331,0.00042331
494.431,0.000422189
494.531,0.000421073
494.631,0.000419962
494.731,0.000418855
494.831,0.000417752
494.931,0.000416653
495.031,0.000415559
495.131,0.000414469
495.231,0.000413384
495.331,0.000412303
495.431,0.000411226
495.531,0.000410153
495.631,0.000409084
495.731,0.00040802
495.831,0.000406959
495.931,0.000405903
496.031,0.000404851
496.131,0.000403803
496.231,0.000402759
496.331,0.000401719
496.431,0.000400684
496.531,0.000399652
496.631,0.000398624
496.731,0.0003976
496.831,0.00039658
496.931,0.000395564
497.031,0.000394552
497.131,0.000393543
497.231,0.000392539
497.331,0.000391538
497.431,0.000390542
497.531,0.000389549
497.631,0.000388559
497.731,0.000387574
497.831,0.000386592
497.931,0.000385614
498.031,0.00038464
498.131,0.00038367
498.231,0.000382703
498.331,0.000381739
498.431,0.00038078
498.531,0.000379824
498.631,0.000378871
498.731,0.000377923
498.831,0.000376977
498.931,0.000376036
499.031,0.000375097
499.131,0.000374163
499.231,0.000373231
499.331,0.000372304
499.431,0.000371379
499.531,0.000370458
499.631,0.000369541
499.731,0.000368627
499.831,0.000367716
499.931,0.000366809
500.031,0.000365905
500.131,0.000365005
500.231,0.000364107
500.331,0.000363213
500.431,0.000362323
500.531,0.000361435
500.631,0.000360551
500.731,0.00035967
500.831,0.000358792
500.931,0.000357918
501.031,0.000357047
501.131,0.000356179
501.231,0.000355314
501.331,0.000354452
501.431,0.000353593
501.531,0.000352738
501.631,0.000351885
501.731,0.000351036
501.831,0.000350189
501.931,0.000349346
502.031,0.000348506
502.131,0.000347669
502.231,0.000346835
502.331,0.000346003
502.431,0.000345175
502.531,0.00034435
502.631,0.000343528
502.731,0.000342708
502.831,0.000341892
502.931,0.000341079
503.031,0.000340268
503.131,0.00033946
503.231,0.000338655
503.331,0.000337853
503.431,0.000337054
503.531,0.000336258
503.631,0.000335465
503.731,0.000334674
503.831,0.000333886
503.931,0.000333101
504.031,0.000332319
504.131,0.000331539
504.231,0.000330762
504.331,0.000329988
504.431,0.000329217
504.531,0.000328448
504.631,0.000327682
504.731,0.000326919
504.831,0.000326158
504.931,0.0003254
505.031,0.000324644
505.131,0.000323892
505.231,0.000323142
505.331,0.000322394
505.431,0.000321649
505.531,0.000320907
505.631,0.000320167
505.731,0.00031943
505.831,0.000318695
505.931,0.000317963
506.031,0.000317233
506.131,0.000316506
506.231,0.000315781
506.331,0.000315059
506.431,0.000314339
506.531,0.000313622
506.631,0.000312907
506.731,0.000312195
506.831,0.000311485
506.931,0.000310778
507.031,0.000310072
507.131,0.00030937
507.231,0.000308669
507.331,0.000307972
507.431,0.000307276
507.531,0.000306583
507.631,0.000305892
507.731,0.000305203
507.831,0.000304517
507.931,0.000303833
508.031,0.000303152
508.131,0.000302472