File: inn/kurimoto_2004/450C/raman/curve_2_fit.dat
414.631,6.62988e-32
414.731,7.96149e-32
414.831,9.55828e-32
414.931,1.14726e-31
415.031,1.3767e-31
415.131,1.65164e-31
415.231,1.98101e-31
415.331,2.3755e-31
415.431,2.84787e-31
415.531,3.41336e-31
415.631,4.09016e-31
415.731,4.89999e-31
415.831,5.86876e-31
415.931,7.0274e-31
416.031,8.41278e-31
416.131,1.00689e-30
416.231,1.20481e-30
416.331,1.4413e-30
416.431,1.72379e-30
416.531,2.06117e-30
416.631,2.46398e-30
416.731,2.94482e-30
416.831,3.51865e-30
416.931,4.2033e-30
417.031,5.01998e-30
417.131,5.9939e-30
417.231,7.15507e-30
417.331,8.53915e-30
417.431,1.01886e-29
417.531,1.21536e-29
417.631,1.44943e-29
417.731,1.72816e-29
417.831,2.06001e-29
417.931,2.45499e-29
418.031,2.92501e-29
418.131,3.48418e-29
418.231,4.14927e-29
418.331,4.94014e-29
418.431,5.88035e-29
418.531,6.99783e-29
418.631,8.3257e-29
418.731,9.90317e-29
418.831,1.17767e-28
418.931,1.40014e-28
419.031,1.66424e-28
419.131,1.97768e-28
419.231,2.34959e-28
419.331,2.79078e-28
419.431,3.31403e-28
419.531,3.93444e-28
419.631,4.66989e-28
419.731,5.54149e-28
419.831,6.57421e-28
419.931,7.79752e-28
420.031,9.24627e-28
420.131,1.09616e-27
420.231,1.2992e-27
420.331,1.53949e-27
420.431,1.82378e-27
420.531,2.16006e-27
420.631,2.55773e-27
420.731,3.0279e-27
420.831,3.58364e-27
420.931,4.24038e-27
421.031,5.01627e-27
421.131,5.93271e-27
421.231,7.01492e-27
421.331,8.29257e-27
421.431,9.80058e-27
421.531,1.15801e-26
421.631,1.36794e-26
421.731,1.61555e-26
421.831,1.90752e-26
421.931,2.25172e-26
422.031,2.6574e-26
422.131,3.13543e-26
422.231,3.69856e-26
422.331,4.36179e-26
422.431,5.14273e-26
422.531,6.06205e-26
422.631,7.14401e-26
422.731,8.41707e-26
422.831,9.91463e-26
422.931,1.16759e-25
423.031,1.37467e-25
423.131,1.61809e-25
423.231,1.90417e-25
423.331,2.24029e-25
423.431,2.63511e-25
423.531,3.09878e-25
423.631,3.64317e-25
423.731,4.28218e-25
423.831,5.03207e-25
423.931,5.91187e-25
424.031,6.94385e-25
424.131,8.15402e-25
424.231,9.57283e-25
424.331,1.12358e-24
424.431,1.31846e-24
424.531,1.54677e-24
424.631,1.81418e-24
424.731,2.12731e-24
424.831,2.4939e-24
424.931,2.92297e-24
425.031,3.42504e-24
425.131,4.0124e-24
425.231,4.69936e-24
425.331,5.50262e-24
425.431,6.44166e-24
425.531,7.53915e-24
425.631,8.82152e-24
425.731,1.03196e-23
425.831,1.20691e-23
425.931,1.41119e-23
426.031,1.64966e-23
426.131,1.92796e-23
426.231,2.25268e-23
426.331,2.63146e-23
426.431,3.0732e-23
426.531,3.58825e-23
426.631,4.18861e-23
426.731,4.88826e-23
426.831,5.70341e-23
426.931,6.65292e-23
427.031,7.75865e-23
427.131,9.046e-23
427.231,1.05444e-22
427.331,1.22882e-22
427.431,1.43169e-22
427.531,1.66765e-22
427.631,1.94204e-22
427.731,2.26105e-22
427.831,2.63182e-22
427.931,3.06267e-22
428.031,3.5632e-22
428.131,4.14455e-22
428.231,4.8196e-22
428.331,5.60326e-22
428.431,6.5128e-22
428.531,7.56818e-22
428.631,8.79248e-22
428.731,1.02124e-21
428.831,1.18588e-21
428.931,1.37674e-21
429.031,1.59793e-21
429.131,1.85422e-21
429.231,2.1511e-21
429.331,2.49492e-21
429.431,2.89301e-21
429.531,3.35382e-21
429.631,3.88711e-21
429.731,4.50411e-21
429.831,5.21782e-21
429.931,6.04317e-21
430.031,6.99742e-21
430.131,8.10042e-21
430.231,9.37505e-21
430.331,1.08477e-20
430.431,1.25486e-20
430.531,1.45128e-20
430.631,1.67805e-20
430.731,1.93978e-20
430.831,2.24181e-20
430.931,2.59025e-20
431.031,2.99213e-20
431.131,3.45555e-20
431.231,3.98978e-20
431.331,4.60552e-20
431.431,5.31501e-20
431.531,6.13234e-20
431.631,7.07368e-20
431.731,8.15757e-20
431.831,9.40531e-20
431.931,1.08413e-19
432.031,1.24936e-19
432.131,1.43943e-19
432.231,1.65801e-19
432.331,1.90934e-19
432.431,2.19824e-19
432.531,2.53025e-19
432.631,2.91172e-19
432.731,3.34989e-19
432.831,3.85309e-19
432.931,4.43082e-19
433.031,5.09397e-19
433.131,5.85497e-19
433.231,6.72806e-19
433.331,7.7295e-19
433.431,8.87788e-19
433.531,1.01945e-18
433.631,1.17035e-18
433.731,1.34327e-18
433.831,1.54138e-18
433.931,1.76828e-18
434.031,2.02809e-18
434.131,2.32553e-18
434.231,2.66596e-18
434.331,3.0555e-18
434.431,3.50112e-18
434.531,4.01077e-18
434.631,4.59352e-18
434.731,5.25969e-18
434.831,6.02103e-18
434.931,6.89094e-18
435.031,7.88466e-18
435.131,9.01953e-18
435.231,1.03153e-17
435.331,1.17944e-17
435.431,1.34824e-17
435.531,1.54083e-17
435.631,1.76051e-17
435.731,2.01103e-17
435.831,2.29666e-17
435.931,2.62223e-17
436.031,2.99323e-17
436.131,3.41592e-17
436.231,3.89737e-17
436.331,4.44562e-17
436.431,5.06978e-17
436.531,5.7802e-17
436.631,6.58861e-17
436.731,7.50828e-17
436.831,8.55429e-17
436.931,9.74371e-17
437.031,1.10959e-16
437.131,1.26327e-16
437.231,1.43789e-16
437.331,1.63626e-16
437.431,1.86155e-16
437.531,2.11736e-16
437.631,2.40775e-16
437.731,2.73732e-16
437.831,3.11125e-16
437.931,3.53543e-16
438.031,4.01647e-16
438.131,4.56189e-16
438.231,5.18014e-16
438.331,5.88077e-16
438.431,6.67458e-16
438.531,7.57374e-16
438.631,8.59198e-16
438.731,9.7448e-16
438.831,1.10497e-15
438.931,1.25263e-15
439.031,1.41968e-15
439.131,1.60863e-15
439.231,1.8223e-15
439.331,2.06386e-15
439.431,2.33688e-15
439.531,2.64538e-15
439.631,2.9939e-15
439.731,3.38753e-15
439.831,3.832e-15
439.931,4.33376e-15
440.031,4.90005e-15
440.131,5.53902e-15
440.231,6.25982e-15
440.331,7.07274e-15
440.431,7.98933e-15
440.531,9.02254e-15
440.631,1.0187e-14
440.731,1.14989e-14
440.831,1.29767e-14
440.931,1.4641e-14
441.031,1.65148e-14
441.131,1.86239e-14
441.231,2.09975e-14
441.331,2.36679e-14
441.431,2.66715e-14
441.531,3.00492e-14
441.631,3.38466e-14
441.731,3.81147e-14
441.831,4.2911e-14
441.931,4.82992e-14
442.031,5.43511e-14
442.131,6.11467e-14
442.231,6.87757e-14
442.331,7.7338e-14
442.431,8.69457e-14
442.531,9.77236e-14
442.631,1.09811e-13
442.731,1.23365e-13
442.831,1.38559e-13
442.931,1.55586e-13
443.031,1.74665e-13
443.131,1.96037e-13
443.231,2.19971e-13
443.331,2.46769e-13
443.431,2.76765e-13
443.531,3.10334e-13
443.631,3.47891e-13
443.731,3.89901e-13
443.831,4.3688e-13
443.931,4.89403e-13
444.031,5.4811e-13
444.131,6.13712e-13
444.231,6.87004e-13
444.331,7.68865e-13
444.431,8.60275e-13
444.531,9.62324e-13
444.631,1.07622e-12
444.731,1.20332e-12
444.831,1.3451e-12
444.931,1.50323e-12
445.031,1.67954e-12
445.131,1.8761e-12
445.231,2.09515e-12
445.331,2.33923e-12
445.431,2.61112e-12
445.531,2.91392e-12
445.631,3.25105e-12
445.731,3.62633e-12
445.831,4.04397e-12
445.931,4.50863e-12
446.031,5.02549e-12
446.131,5.60026e-12
446.231,6.23929e-12
446.331,6.94958e-12
446.431,7.73889e-12
446.531,8.61579e-12
446.631,9.58978e-12
446.731,1.06713e-11
446.831,1.1872e-11
446.931,1.32047e-11
447.031,1.46834e-11
447.131,1.63239e-11
447.231,1.81434e-11
447.331,2.01608e-11
447.431,2.23972e-11
447.531,2.48758e-11
447.631,2.76221e-11
447.731,3.06642e-11
447.831,3.40334e-11
447.931,3.77637e-11
448.031,4.18929e-11
448.131,4.64626e-11
448.231,5.15184e-11
448.331,5.71109e-11
448.431,6.32953e-11
448.531,7.01327e-11
448.631,7.76902e-11
448.731,8.60417e-11
448.831,9.52682e-11
448.931,1.05459e-10
449.031,1.16712e-10
449.131,1.29135e-10
449.231,1.42847e-10
449.331,1.57977e-10
449.431,1.74668e-10
449.531,1.93076e-10
449.631,2.13373e-10
449.731,2.35748e-10
449.831,2.60408e-10
449.931,2.87578e-10
450.031,3.17508e-10
450.131,3.50469e-10
450.231,3.8676e-10
450.331,4.26708e-10
450.431,4.70669e-10
450.531,5.19036e-10
450.631,5.72237e-10
450.731,6.30741e-10
450.831,6.95061e-10
450.931,7.65757e-10
451.031,8.43444e-10
451.131,9.28791e-10
451.231,1.02253e-09
451.331,1.12546e-09
451.431,1.23846e-09
451.531,1.36248e-09
451.631,1.49856e-09
451.731,1.64785e-09
451.831,1.81157e-09
451.931,1.99108e-09
452.031,2.18787e-09
452.131,2.40352e-09
452.231,2.63981e-09
452.331,2.89864e-09
452.431,3.18209e-09
452.531,3.49242e-09
452.631,3.8321e-09
452.731,4.20383e-09
452.831,4.61051e-09
452.931,5.05534e-09
453.031,5.54176e-09
453.131,6.07354e-09
453.231,6.65477e-09
453.331,7.28988e-09
453.431,7.9837e-09
453.531,8.74148e-09
453.631,9.56891e-09
453.731,1.04722e-08
453.831,1.14579e-08
453.931,1.25336e-08
454.031,1.37069e-08
454.131,1.49864e-08
454.231,1.63816e-08
454.331,1.79023e-08
454.431,1.95596e-08
454.531,2.13652e-08
454.631,2.33319e-08
454.731,2.54736e-08
454.831,2.78053e-08
454.931,3.03432e-08
455.031,3.31048e-08
455.131,3.61092e-08
455.231,3.93769e-08
455.331,4.293e-08
455.431,4.67927e-08
455.531,5.09907e-08
455.631,5.55522e-08
455.731,6.05073e-08
455.831,6.58887e-08
455.931,7.17316e-08
456.031,7.80741e-08
456.131,8.49572e-08
456.231,9.24251e-08
456.331,1.00525e-07
456.431,1.0931e-07
456.531,1.18833e-07
456.631,1.29156e-07
456.731,1.40342e-07
456.831,1.5246e-07
456.931,1.65586e-07
457.031,1.79798e-07
457.131,1.95184e-07
457.231,2.11837e-07
457.331,2.29855e-07
457.431,2.49346e-07
457.531,2.70426e-07
457.631,2.93219e-07
457.731,3.17856e-07
457.831,3.44482e-07
457.931,3.73249e-07
458.031,4.04322e-07
458.131,4.37878e-07
458.231,4.74106e-07
458.331,5.13209e-07
458.431,5.55405e-07
458.531,6.00928e-07
458.631,6.50027e-07
458.731,7.0297e-07
458.831,7.60044e-07
458.931,8.21556e-07
459.031,8.87836e-07
459.131,9.59234e-07
459.231,1.03613e-06
459.331,1.11892e-06
459.431,1.20804e-06
459.531,1.30394e-06
459.631,1.40713e-06
459.731,1.51812e-06
459.831,1.63747e-06
459.931,1.76579e-06
460.031,1.90371e-06
460.131,2.05191e-06
460.231,2.21112e-06
460.331,2.38213e-06
460.431,2.56574e-06
460.531,2.76285e-06
460.631,2.9744e-06
460.731,3.20138e-06
460.831,3.44486e-06
460.931,3.70598e-06
461.031,3.98594e-06
461.131,4.28603e-06
461.231,4.60762e-06
461.331,4.95215e-06
461.431,5.32119e-06
461.531,5.71636e-06
461.631,6.13942e-06
461.731,6.59222e-06
461.831,7.07673e-06
461.931,7.59504e-06
462.031,8.14937e-06
462.131,8.74208e-06
462.231,9.37567e-06
462.331,1.00528e-05
462.431,1.07762e-05
462.531,1.1549e-05
462.631,1.23742e-05
462.731,1.32553e-05
462.831,1.41957e-05
462.931,1.51992e-05
463.031,1.62697e-05
463.131,1.74116e-05
463.231,1.86291e-05
463.331,1.9927e-05
463.431,2.13103e-05
463.531,2.27841e-05
463.631,2.43541e-05
463.731,2.60261e-05
463.831,2.78063e-05
463.931,2.97011e-05
464.031,3.17176e-05
464.131,3.38628e-05
464.231,3.61446e-05
464.331,3.85709e-05
464.431,4.11503e-05
464.531,4.38918e-05
464.631,4.68047e-05
464.731,4.98991e-05
464.831,5.31854e-05
464.931,5.66747e-05
465.031,6.03785e-05
465.131,6.4309e-05
465.231,6.84791e-05
465.331,7.29023e-05
465.431,7.75927e-05
465.531,8.25652e-05
465.631,8.78354e-05
465.731,9.34198e-05
465.831,9.93357e-05
465.931,0.000105601
466.031,0.000112235
466.131,0.000119257
466.231,0.000126688
466.331,0.00013455
466.431,0.000142867
466.531,0.000151661
466.631,0.000160958
466.731,0.000170784
466.831,0.000181168
466.931,0.000192136
467.031,0.000203721
467.131,0.000215952
467.231,0.000228863
467.331,0.000242489
467.431,0.000256865
467.531,0.000272028
467.631,0.000288017
467.731,0.000304874
467.831,0.000322641
467.931,0.000341361
468.031,0.000361082
468.131,0.000381852
468.231,0.00040372
468.331,0.000426738
468.431,0.000450962
468.531,0.000476448
468.631,0.000503254
468.731,0.000531441
468.831,0.000561074
468.931,0.000592218
469.031,0.000624943
469.131,0.000659318
469.231,0.000695419
469.331,0.000733322
469.431,0.000773106
469.531,0.000814856
469.631,0.000858655
469.731,0.000904593
469.831,0.000952762
469.931,0.00100326
470.031,0.00105618
470.131,0.00111162
470.231,0.0011697
470.331,0.00123052
470.431,0.0012942
470.531,0.00136085
470.631,0.00143058
470.731,0.00150354
470.831,0.00157983
470.931,0.00165961
471.031,0.001743
471.131,0.00183014
471.231,0.00192118
471.331,0.00201627
471.431,0.00211556
471.531,0.00221922
471.631,0.0023274
471.731,0.00244027
471.831,0.00255801
471.931,0.00268079
472.031,0.00280879
472.131,0.0029422
472.231,0.00308122
472.331,0.00322604
472.431,0.00337687
472.531,0.0035339
472.631,0.00369735
472.731,0.00386745
472.831,0.0040444
472.931,0.00422845
473.031,0.00441982
473.131,0.00461875
473.231,0.00482549
473.331,0.00504028
473.431,0.00526338
473.531,0.00549504
473.631,0.00573554
473.731,0.00598514
473.831,0.00624411
473.931,0.00651274
474.031,0.0067913
474.131,0.0070801
474.231,0.00737942
474.331,0.00768957
474.431,0.00801084
474.531,0.00834355
474.631,0.00868801
474.731,0.00904454
474.831,0.00941346
474.931,0.00979509
475.031,0.0101898
475.131,0.0105978
475.231,0.0110196
475.331,0.0114554
475.431,0.0119057
475.531,0.0123707
475.631,0.0128508
475.731,0.0133463
475.831,0.0138577
475.931,0.0143852
476.031,0.0149293
476.131,0.0154902
476.231,0.0160684
476.331,0.0166642
476.431,0.017278
476.531,0.0179102
476.631,0.018561
476.731,0.0192309
476.831,0.0199203
476.931,0.0206294
477.031,0.0213588
477.131,0.0221086
477.231,0.0228793
477.331,0.0236713
477.431,0.0244848
477.531,0.0253203
477.631,0.026178
477.731,0.0270584
477.831,0.0279617
477.931,0.0288882
478.031,0.0298384
478.131,0.0308125
478.231,0.0318109
478.331,0.0328337
478.431,0.0338814
478.531,0.0349542
478.631,0.0360524
478.731,0.0371762
478.831,0.038326
478.931,0.0395019
479.031,0.0407042
479.131,0.0419331
479.231,0.0431888
479.331,0.0444715
479.431,0.0457815
479.531,0.0471188
479.631,0.0484836
479.731,0.0498761
479.831,0.0512964
479.931,0.0527445
480.031,0.0542207
480.131,0.0557248
480.231,0.0572571
480.331,0.0588175
480.431,0.0604061
480.531,0.0620228
480.631,0.0636676
480.731,0.0653405
480.831,0.0670414
480.931,0.0687701
481.031,0.0705267
481.131,0.0723109
481.231,0.0741227
481.331,0.0759617
481.431,0.0778278
481.531,0.0797208
481.631,0.0816404
481.731,0.0835863
481.831,0.0855583
481.931,0.0875559
482.031,0.0895788
482.131,0.0916267
482.231,0.0936991
482.331,0.0957955
482.431,0.0979156
482.531,0.100059
482.631,0.102224
482.731,0.104412
482.831,0.106621
482.931,0.108851
483.031,0.111102
483.131,0.113371
483.231,0.11566
483.331,0.117967
483.431,0.120291
483.531,0.122631
483.631,0.124988
483.731,0.127359
483.831,0.129745
483.931,0.132143
484.031,0.134554
484.131,0.136977
484.231,0.13941
484.331,0.141852
484.431,0.144303
484.531,0.146761
484.631,0.149225
484.731,0.151695
484.831,0.154169
484.931,0.156646
485.031,0.159125
485.131,0.161605
485.231,0.164084
485.331,0.166561
485.431,0.169036
485.531,0.171507
485.631,0.173972
485.731,0.176431
485.831,0.178882
485.931,0.181324
486.031,0.183756
486.131,0.186176
486.231,0.188583
486.331,0.190975
486.431,0.193352
486.531,0.195712
486.631,0.198053
486.731,0.200375
486.831,0.202676
486.931,0.204954
487.031,0.207209
487.131,0.209438
487.231,0.211641
487.331,0.213817
487.431,0.215963
487.531,0.218079
487.631,0.220164
487.731,0.222215
487.831,0.224232
487.931,0.226214
488.031,0.228159
488.131,0.230065
488.231,0.231933
488.331,0.23376
488.431,0.235545
488.531,0.237288
488.631,0.238986
488.731,0.240639
488.831,0.242247
488.931,0.243806
489.031,0.245318
489.131,0.24678
489.231,0.248192
489.331,0.249552
489.431,0.25086
489.531,0.252115
489.631,0.253316
489.731,0.254462
489.831,0.255552
489.931,0.256587
490.031,0.257563
490.131,0.258482
490.231,0.259343
490.331,0.260145
490.431,0.260887
490.531,0.261568
490.631,0.26219
490.731,0.26275
490.831,0.263248
490.931,0.263685
491.031,0.26406
491.131,0.264372
491.231,0.264622
491.331,0.264808
491.431,0.264932
491.531,0.264993
491.631,0.264991
491.731,0.264927
491.831,0.264802
491.931,0.264615
492.031,0.264367
492.131,0.264058
492.231,0.263688
492.331,0.263257
492.431,0.262766
492.531,0.262215
492.631,0.261604
492.731,0.260934
492.831,0.260205
492.931,0.259418
493.031,0.258573
493.131,0.257671
493.231,0.256713
493.331,0.255699
493.431,0.254629
493.531,0.253505
493.631,0.252327
493.731,0.251097
493.831,0.249814
493.931,0.24848
494.031,0.247096
494.131,0.245663
494.231,0.244181
494.331,0.242651
494.431,0.241075
494.531,0.239454
494.631,0.237788
494.731,0.236079
494.831,0.234328
494.931,0.232536
495.031,0.230704
495.131,0.228833
495.231,0.226924
495.331,0.224979
495.431,0.222999
495.531,0.220985
495.631,0.218939
495.731,0.216861
495.831,0.214752
495.931,0.212615
496.031,0.21045
496.131,0.208259
496.231,0.206043
496.331,0.203803
496.431,0.20154
496.531,0.199256
496.631,0.196952
496.731,0.19463
496.831,0.19229
496.931,0.189935
497.031,0.187564
497.131,0.185181
497.231,0.182785
497.331,0.180378
497.431,0.177961
497.531,0.175536
497.631,0.173104
497.731,0.170665
497.831,0.168222
497.931,0.165776
498.031,0.163327
498.131,0.160877
498.231,0.158427
498.331,0.155977
498.431,0.15353
498.531,0.151087
498.631,0.148647
498.731,0.146213
498.831,0.143786
498.931,0.141366
499.031,0.138954
499.131,0.136552
499.231,0.13416
499.331,0.131779
499.431,0.129411
499.531,0.127055
499.631,0.124714
499.731,0.122387
499.831,0.120076
499.931,0.117781
500.031,0.115503
500.131,0.113242
500.231,0.111
500.331,0.108778
500.431,0.106575
500.531,0.104392
500.631,0.10223
500.731,0.10009
500.831,0.0979716
500.931,0.095876
501.031,0.0938033
501.131,0.0917541
501.231,0.0897289
501.331,0.0877279
501.431,0.0857516
501.531,0.0838004
501.631,0.0818746
501.731,0.0799744
501.831,0.0781001
501.931,0.0762521
502.031,0.0744305
502.131,0.0726355
502.231,0.0708673
502.331,0.0691262
502.431,0.0674121
502.531,0.0657252
502.631,0.0640657
502.731,0.0624335
502.831,0.0608288
502.931,0.0592516
503.031,0.0577019
503.131,0.0561796
503.231,0.0546848
503.331,0.0532174
503.431,0.0517773
503.531,0.0503645
503.631,0.0489788
503.731,0.0476202
503.831,0.0462886
503.931,0.0449837
504.031,0.0437054
504.131,0.0424536
504.231,0.0412281
504.331,0.0400286
504.431,0.038855
504.531,0.0377071
504.631,0.0365845
504.731,0.0354872
504.831,0.0344147
504.931,0.0333669
505.031,0.0323435
505.131,0.0313442
505.231,0.0303687
505.331,0.0294167
505.431,0.028488
505.531,0.0275821
505.631,0.0266989
505.731,0.0258379
505.831,0.0249989
505.931,0.0241815
506.031,0.0233854
506.131,0.0226103
506.231,0.0218557
506.331,0.0211215
506.431,0.0204071
506.531,0.0197124
506.631,0.0190368
506.731,0.0183802
506.831,0.017742
506.931,0.0171221
507.031,0.01652
507.131,0.0159353
507.231,0.0153678
507.331,0.014817
507.431,0.0142826
507.531,0.0137644
507.631,0.0132618
507.731,0.0127746
507.831,0.0123025
507.931,0.011845
508.031,0.011402
508.131,0.0109729