File: inn/kurimoto_2004/450C/raman/curve_total_fit.dat
414.631,0.816565
414.731,0.819912
414.831,0.823415
414.931,0.827084
415.031,0.830927
415.131,0.834952
415.231,0.83917
415.331,0.84359
415.431,0.848221
415.531,0.853074
415.631,0.858159
415.731,0.863486
415.831,0.869065
415.931,0.874907
416.031,0.88102
416.131,0.887413
416.231,0.894095
416.331,0.901071
416.431,0.908348
416.531,0.915927
416.631,0.92381
416.731,0.931994
416.831,0.940472
416.931,0.949234
417.031,0.958264
417.131,0.967539
417.231,0.977032
417.331,0.986704
417.431,0.996512
417.531,1.0064
417.631,1.01631
417.731,1.02616
417.831,1.03587
417.931,1.04535
418.031,1.05451
418.131,1.06322
418.231,1.07139
418.331,1.07889
418.431,1.08562
418.531,1.09147
418.631,1.09635
418.731,1.10016
418.831,1.10284
418.931,1.10435
419.031,1.10465
419.131,1.10375
419.231,1.10168
419.331,1.09847
419.431,1.09419
419.531,1.0889
419.631,1.08271
419.731,1.07571
419.831,1.06801
419.931,1.05971
420.031,1.05094
420.131,1.04179
420.231,1.03237
420.331,1.02277
420.431,1.01307
420.531,1.00336
420.631,0.993703
420.731,0.984151
420.831,0.974756
420.931,0.965556
421.031,0.956584
421.131,0.947866
421.231,0.93942
421.331,0.931258
421.431,0.923391
421.531,0.915822
421.631,0.908552
421.731,0.90158
421.831,0.894902
421.931,0.888512
422.031,0.882404
422.131,0.876569
422.231,0.870998
422.331,0.865682
422.431,0.860611
422.531,0.855775
422.631,0.851165
422.731,0.846769
422.831,0.842579
422.931,0.838585
423.031,0.834778
423.131,0.831148
423.231,0.827687
423.331,0.824386
423.431,0.821239
423.531,0.818236
423.631,0.81537
423.731,0.812635
423.831,0.810025
423.931,0.807532
424.031,0.80515
424.131,0.802875
424.231,0.800701
424.331,0.798623
424.431,0.796635
424.531,0.794734
424.631,0.792916
424.731,0.791175
424.831,0.789508
424.931,0.787913
425.031,0.786384
425.131,0.78492
425.231,0.783516
425.331,0.782171
425.431,0.780881
425.531,0.779644
425.631,0.778457
425.731,0.777318
425.831,0.776225
425.931,0.775176
426.031,0.774168
426.131,0.773201
426.231,0.772271
426.331,0.771379
426.431,0.770521
426.531,0.769696
426.631,0.768904
426.731,0.768142
426.831,0.76741
426.931,0.766705
427.031,0.766028
427.131,0.765377
427.231,0.76475
427.331,0.764148
427.431,0.763568
427.531,0.76301
427.631,0.762474
427.731,0.761958
427.831,0.761461
427.931,0.760984
428.031,0.760524
428.131,0.760082
428.231,0.759657
428.331,0.759248
428.431,0.758855
428.531,0.758476
428.631,0.758112
428.731,0.757763
428.831,0.757426
428.931,0.757103
429.031,0.756793
429.131,0.756494
429.231,0.756208
429.331,0.755933
429.431,0.755669
429.531,0.755415
429.631,0.755172
429.731,0.754939
429.831,0.754716
429.931,0.754501
430.031,0.754296
430.131,0.7541
430.231,0.753913
430.331,0.753733
430.431,0.753562
430.531,0.753398
430.631,0.753242
430.731,0.753094
430.831,0.752952
430.931,0.752818
431.031,0.75269
431.131,0.752568
431.231,0.752453
431.331,0.752345
431.431,0.752242
431.531,0.752145
431.631,0.752054
431.731,0.751968
431.831,0.751888
431.931,0.751813
432.031,0.751743
432.131,0.751678
432.231,0.751618
432.331,0.751562
432.431,0.751512
432.531,0.751466
432.631,0.751424
432.731,0.751386
432.831,0.751353
432.931,0.751324
433.031,0.751298
433.131,0.751277
433.231,0.75126
433.331,0.751246
433.431,0.751236
433.531,0.751229
433.631,0.751226
433.731,0.751226
433.831,0.751229
433.931,0.751236
434.031,0.751246
434.131,0.751259
434.231,0.751275
434.331,0.751294
434.431,0.751316
434.531,0.751341
434.631,0.751369
434.731,0.751399
434.831,0.751432
434.931,0.751468
435.031,0.751506
435.131,0.751547
435.231,0.75159
435.331,0.751635
435.431,0.751683
435.531,0.751734
435.631,0.751786
435.731,0.751841
435.831,0.751898
435.931,0.751957
436.031,0.752018
436.131,0.752082
436.231,0.752147
436.331,0.752215
436.431,0.752284
436.531,0.752355
436.631,0.752428
436.731,0.752503
436.831,0.75258
436.931,0.752659
437.031,0.752739
437.131,0.752821
437.231,0.752905
437.331,0.75299
437.431,0.753077
437.531,0.753166
437.631,0.753256
437.731,0.753348
437.831,0.753441
437.931,0.753536
438.031,0.753632
438.131,0.75373
438.231,0.753829
438.331,0.75393
438.431,0.754032
438.531,0.754135
438.631,0.754239
438.731,0.754345
438.831,0.754452
438.931,0.754561
439.031,0.75467
439.131,0.754781
439.231,0.754893
439.331,0.755006
439.431,0.755121
439.531,0.755236
439.631,0.755353
439.731,0.755471
439.831,0.755589
439.931,0.755709
440.031,0.75583
440.131,0.755952
440.231,0.756075
440.331,0.756199
440.431,0.756324
440.531,0.756449
440.631,0.756576
440.731,0.756704
440.831,0.756832
440.931,0.756962
441.031,0.757092
441.131,0.757223
441.231,0.757355
441.331,0.757488
441.431,0.757622
441.531,0.757756
441.631,0.757891
441.731,0.758027
441.831,0.758164
441.931,0.758301
442.031,0.758439
442.131,0.758578
442.231,0.758718
442.331,0.758858
442.431,0.758999
442.531,0.75914
442.631,0.759282
442.731,0.759425
442.831,0.759569
442.931,0.759713
443.031,0.759857
443.131,0.760002
443.231,0.760148
443.331,0.760294
443.431,0.760441
443.531,0.760588
443.631,0.760736
443.731,0.760884
443.831,0.761033
443.931,0.761182
444.031,0.761332
444.131,0.761482
444.231,0.761633
444.331,0.761784
444.431,0.761935
444.531,0.762087
444.631,0.762239
444.731,0.762391
444.831,0.762544
444.931,0.762698
445.031,0.762851
445.131,0.763005
445.231,0.763159
445.331,0.763314
445.431,0.763469
445.531,0.763624
445.631,0.763779
445.731,0.763935
445.831,0.76409
445.931,0.764247
446.031,0.764403
446.131,0.764559
446.231,0.764716
446.331,0.764873
446.431,0.76503
446.531,0.765188
446.631,0.765345
446.731,0.765503
446.831,0.76566
446.931,0.765818
447.031,0.765976
447.131,0.766134
447.231,0.766293
447.331,0.766451
447.431,0.766609
447.531,0.766768
447.631,0.766926
447.731,0.767085
447.831,0.767243
447.931,0.767402
448.031,0.76756
448.131,0.767719
448.231,0.767878
448.331,0.768036
448.431,0.768195
448.531,0.768353
448.631,0.768512
448.731,0.76867
448.831,0.768828
448.931,0.768987
449.031,0.769145
449.131,0.769303
449.231,0.769461
449.331,0.769619
449.431,0.769776
449.531,0.769934
449.631,0.770091
449.731,0.770249
449.831,0.770406
449.931,0.770563
450.031,0.770719
450.131,0.770876
450.231,0.771032
450.331,0.771188
450.431,0.771344
450.531,0.7715
450.631,0.771655
450.731,0.77181
450.831,0.771965
450.931,0.77212
451.031,0.772274
451.131,0.772428
451.231,0.772582
451.331,0.772735
451.431,0.772888
451.531,0.773041
451.631,0.773193
451.731,0.773346
451.831,0.773497
451.931,0.773649
452.031,0.7738
452.131,0.77395
452.231,0.7741
452.331,0.77425
452.431,0.774399
452.531,0.774548
452.631,0.774697
452.731,0.774845
452.831,0.774992
452.931,0.77514
453.031,0.775286
453.131,0.775432
453.231,0.775578
453.331,0.775723
453.431,0.775868
453.531,0.776012
453.631,0.776156
453.731,0.776299
453.831,0.776442
453.931,0.776584
454.031,0.776725
454.131,0.776866
454.231,0.777006
454.331,0.777146
454.431,0.777285
454.531,0.777424
454.631,0.777562
454.731,0.777699
454.831,0.777836
454.931,0.777972
455.031,0.778107
455.131,0.778242
455.231,0.778376
455.331,0.778509
455.431,0.778642
455.531,0.778774
455.631,0.778905
455.731,0.779036
455.831,0.779166
455.931,0.779295
456.031,0.779424
456.131,0.779552
456.231,0.779679
456.331,0.779805
456.431,0.77993
456.531,0.780055
456.631,0.780179
456.731,0.780302
456.831,0.780425
456.931,0.780546
457.031,0.780667
457.131,0.780787
457.231,0.780906
457.331,0.781025
457.431,0.781142
457.531,0.781259
457.631,0.781375
457.731,0.78149
457.831,0.781604
457.931,0.781717
458.031,0.781829
458.131,0.781941
458.231,0.782051
458.331,0.782161
458.431,0.78227
458.531,0.782378
458.631,0.782485
458.731,0.782591
458.831,0.782696
458.931,0.7828
459.031,0.782903
459.131,0.783006
459.231,0.783107
459.331,0.783207
459.431,0.783307
459.531,0.783405
459.631,0.783503
459.731,0.783599
459.831,0.783695
459.931,0.783789
460.031,0.783883
460.131,0.783975
460.231,0.784067
460.331,0.784157
460.431,0.784246
460.531,0.784335
460.631,0.784422
460.731,0.784509
460.831,0.784594
460.931,0.784678
461.031,0.784761
461.131,0.784843
461.231,0.784925
461.331,0.785005
461.431,0.785084
461.531,0.785162
461.631,0.785238
461.731,0.785314
461.831,0.785389
461.931,0.785462
462.031,0.785535
462.131,0.785606
462.231,0.785677
462.331,0.785746
462.431,0.785814
462.531,0.785881
462.631,0.785947
462.731,0.786012
462.831,0.786076
462.931,0.786139
463.031,0.7862
463.131,0.786261
463.231,0.78632
463.331,0.786378
463.431,0.786436
463.531,0.786492
463.631,0.786547
463.731,0.786601
463.831,0.786654
463.931,0.786705
464.031,0.786756
464.131,0.786806
464.231,0.786854
464.331,0.786902
464.431,0.786948
464.531,0.786993
464.631,0.787038
464.731,0.787081
464.831,0.787123
464.931,0.787165
465.031,0.787205
465.131,0.787244
465.231,0.787282
465.331,0.787319
465.431,0.787356
465.531,0.787391
465.631,0.787425
465.731,0.787459
465.831,0.787491
465.931,0.787523
466.031,0.787553
466.131,0.787583
466.231,0.787612
466.331,0.78764
466.431,0.787668
466.531,0.787694
466.631,0.78772
466.731,0.787745
466.831,0.787769
466.931,0.787793
467.031,0.787816
467.131,0.787838
467.231,0.78786
467.331,0.787881
467.431,0.787902
467.531,0.787922
467.631,0.787942
467.731,0.787961
467.831,0.78798
467.931,0.787999
468.031,0.788017
468.131,0.788036
468.231,0.788053
468.331,0.788071
468.431,0.788089
468.531,0.788107
468.631,0.788125
468.731,0.788143
468.831,0.788161
468.931,0.788179
469.031,0.788198
469.131,0.788217
469.231,0.788236
469.331,0.788256
469.431,0.788276
469.531,0.788298
469.631,0.78832
469.731,0.788343
469.831,0.788366
469.931,0.788391
470.031,0.788417
470.131,0.788445
470.231,0.788473
470.331,0.788504
470.431,0.788535
470.531,0.788569
470.631,0.788604
470.731,0.788641
470.831,0.788681
470.931,0.788722
471.031,0.788766
471.131,0.788812
471.231,0.788861
471.331,0.788913
471.431,0.788968
471.531,0.789026
471.631,0.789087
471.731,0.789152
471.831,0.78922
471.931,0.789292
472.031,0.789368
472.131,0.789449
472.231,0.789533
472.331,0.789622
472.431,0.789716
472.531,0.789815
472.631,0.78992
472.731,0.790029
472.831,0.790145
472.931,0.790266
473.031,0.790393
473.131,0.790527
473.231,0.790667
473.331,0.790814
473.431,0.790968
473.531,0.79113
473.631,0.791299
473.731,0.791476
473.831,0.791662
473.931,0.791855
474.031,0.792058
474.131,0.79227
474.231,0.792491
474.331,0.792721
474.431,0.792962
474.531,0.793213
474.631,0.793475
474.731,0.793747
474.831,0.794031
474.931,0.794327
475.031,0.794634
475.131,0.794953
475.231,0.795286
475.331,0.795631
475.431,0.795989
475.531,0.796361
475.631,0.796747
475.731,0.797148
475.831,0.797563
475.931,0.797993
476.031,0.798439
476.131,0.7989
476.231,0.799378
476.331,0.799872
476.431,0.800383
476.531,0.800912
476.631,0.801458
476.731,0.802022
476.831,0.802605
476.931,0.803206
477.031,0.803827
477.131,0.804467
477.231,0.805127
477.331,0.805807
477.431,0.806507
477.531,0.807229
477.631,0.807972
477.731,0.808736
477.831,0.809523
477.931,0.810332
478.031,0.811163
478.131,0.812018
478.231,0.812895
478.331,0.813797
478.431,0.814722
478.531,0.815671
478.631,0.816645
478.731,0.817644
478.831,0.818667
478.931,0.819716
479.031,0.82079
479.131,0.821891
479.231,0.823016
479.331,0.824169
479.431,0.825347
479.531,0.826552
479.631,0.827784
479.731,0.829042
479.831,0.830327
479.931,0.83164
480.031,0.832979
480.131,0.834346
480.231,0.83574
480.331,0.837162
480.431,0.83861
480.531,0.840086
480.631,0.84159
480.731,0.84312
480.831,0.844678
480.931,0.846263
481.031,0.847876
481.131,0.849515
481.231,0.85118
481.331,0.852873
481.431,0.854591
481.531,0.856336
481.631,0.858107
481.731,0.859903
481.831,0.861725
481.931,0.863571
482.031,0.865443
482.131,0.867338
482.231,0.869258
482.331,0.8712
482.431,0.873166
482.531,0.875154
482.631,0.877164
482.731,0.879196
482.831,0.881248
482.931,0.883321
483.031,0.885413
483.131,0.887524
483.231,0.889653
483.331,0.8918
483.431,0.893963
483.531,0.896143
483.631,0.898338
483.731,0.900547
483.831,0.90277
483.931,0.905005
484.031,0.907253
484.131,0.909511
484.231,0.911779
484.331,0.914056
484.431,0.916341
484.531,0.918632
484.631,0.92093
484.731,0.923233
484.831,0.925539
484.931,0.927848
485.031,0.930158
485.131,0.932468
485.231,0.934778
485.331,0.937086
485.431,0.93939
485.531,0.94169
485.631,0.943984
485.731,0.946272
485.831,0.948551
485.931,0.95082
486.031,0.953079
486.131,0.955326
486.231,0.957559
486.331,0.959778
486.431,0.96198
486.531,0.964166
486.631,0.966332
486.731,0.968479
486.831,0.970604
486.931,0.972707
487.031,0.974785
487.131,0.976838
487.231,0.978865
487.331,0.980863
487.431,0.982833
487.531,0.984771
487.631,0.986678
487.731,0.988551
487.831,0.99039
487.931,0.992193
488.031,0.99396
488.131,0.995688
488.231,0.997376
488.331,0.999024
488.431,1.00063
488.531,1.00219
488.631,1.00371
488.731,1.00518
488.831,1.00661
488.931,1.00799
489.031,1.00932
489.131,1.0106
489.231,1.01183
489.331,1.01301
489.431,1.01414
489.531,1.01521
489.631,1.01623
489.731,1.0172
489.831,1.01811
489.931,1.01896
490.031,1.01976
490.131,1.02049
490.231,1.02117
490.331,1.02179
490.431,1.02235
490.531,1.02285
490.631,1.02329
490.731,1.02367
490.831,1.02399
490.931,1.02424
491.031,1.02444
491.131,1.02457
491.231,1.02463
491.331,1.02464
491.431,1.02458
491.531,1.02446
491.631,1.02428
491.731,1.02403
491.831,1.02372
491.931,1.02336
492.031,1.02293
492.131,1.02244
492.231,1.02188
492.331,1.02127
492.431,1.0206
492.531,1.01987
492.631,1.01908
492.731,1.01823
492.831,1.01732
492.931,1.01635
493.031,1.01532
493.131,1.01424
493.231,1.0131
493.331,1.01191
493.431,1.01066
493.531,1.00935
493.631,1.008
493.731,1.00659
493.831,1.00513
493.931,1.00361
494.031,1.00205
494.131,1.00044
494.231,0.998777
494.331,0.997069
494.431,0.995315
494.531,0.993516
494.631,0.991673
494.731,0.989787
494.831,0.987858
494.931,0.985889
495.031,0.983881
495.131,0.981833
495.231,0.979749
495.331,0.977628
495.431,0.975472
495.531,0.973283
495.631,0.971062
495.731,0.968809
495.831,0.966526
495.931,0.964215
496.031,0.961876
496.131,0.959511
496.231,0.957122
496.331,0.954709
496.431,0.952273
496.531,0.949817
496.631,0.947342
496.731,0.944848
496.831,0.942337
496.931,0.93981
497.031,0.937269
497.131,0.934715
497.231,0.932149
497.331,0.929573
497.431,0.926987
497.531,0.924393
497.631,0.921793
497.731,0.919187
497.831,0.916576
497.931,0.913962
498.031,0.911346
498.131,0.90873
498.231,0.906114
498.331,0.903499
498.431,0.900887
498.531,0.898278
498.631,0.895674
498.731,0.893076
498.831,0.890485
498.931,0.887902
499.031,0.885328
499.131,0.882763
499.231,0.880209
499.331,0.877667
499.431,0.875138
499.531,0.872622
499.631,0.87012
499.731,0.867634
499.831,0.865163
499.931,0.86271
500.031,0.860273
500.131,0.857855
500.231,0.855456
500.331,0.853077
500.431,0.850717
500.531,0.848379
500.631,0.846062
500.731,0.843767
500.831,0.841494
500.931,0.839244
501.031,0.837018
501.131,0.834816
501.231,0.832639
501.331,0.830486
501.431,0.828358
501.531,0.826256
501.631,0.82418
501.731,0.82213
501.831,0.820106
501.931,0.818109
502.031,0.81614
502.131,0.814197
502.231,0.812281
502.331,0.810393
502.431,0.808533
502.531,0.806701
502.631,0.804896
502.731,0.803119
502.831,0.801371
502.931,0.79965
503.031,0.797957
503.131,0.796292
503.231,0.794656
503.331,0.793047
503.431,0.791466
503.531,0.789913
503.631,0.788388
503.731,0.78689
503.831,0.78542
503.931,0.783977
504.031,0.782561
504.131,0.781172
504.231,0.77981
504.331,0.778475
504.431,0.777166
504.531,0.775884
504.631,0.774627
504.731,0.773396
504.831,0.772191
504.931,0.771011
505.031,0.769855
505.131,0.768725
505.231,0.767619
505.331,0.766537
505.431,0.765478
505.531,0.764443
505.631,0.763432
505.731,0.762443
505.831,0.761477
505.931,0.760533
506.031,0.759611
506.131,0.75871
506.231,0.75783
506.331,0.756972
506.431,0.756134
506.531,0.755316
506.631,0.754518
506.731,0.753739
506.831,0.752979
506.931,0.752239
507.031,0.751516
507.131,0.750812
507.231,0.750125
507.331,0.749456
507.431,0.748804
507.531,0.748168
507.631,0.747549
507.731,0.746945
507.831,0.746358
507.931,0.745785
508.031,0.745228
508.131,0.744685