File: inn/kurimoto_2004/as_grown/raman/curve_1_fit.dat
422.016,0.000872094
422.116,0.000912373
422.216,0.000954247
422.316,0.000997766
422.416,0.00104298
422.516,0.00108994
422.616,0.0011387
422.716,0.00118931
422.816,0.00124182
422.916,0.00129629
423.016,0.00135277
423.116,0.00141133
423.216,0.00147201
423.316,0.00153487
423.416,0.00159997
423.516,0.00166737
423.616,0.00173713
423.716,0.0018093
423.816,0.00188395
423.916,0.00196113
424.016,0.00204091
424.116,0.00212334
424.216,0.00220849
424.316,0.00229642
424.416,0.00238718
424.516,0.00248084
424.616,0.00257746
424.716,0.0026771
424.816,0.00277982
424.916,0.00288568
425.016,0.00299473
425.116,0.00310705
425.216,0.00322268
425.316,0.00334169
425.416,0.00346413
425.516,0.00359006
425.616,0.00371953
425.716,0.00385261
425.816,0.00398933
425.916,0.00412976
426.016,0.00427395
426.116,0.00442194
426.216,0.00457378
426.316,0.00472953
426.416,0.00488922
426.516,0.0050529
426.616,0.00522061
426.716,0.00539238
426.816,0.00556827
426.916,0.00574829
427.016,0.00593248
427.116,0.00612088
427.216,0.0063135
427.316,0.00651038
427.416,0.00671153
427.516,0.00691697
427.616,0.00712673
427.716,0.0073408
427.816,0.00755921
427.916,0.00778195
428.016,0.00800903
428.116,0.00824044
428.216,0.00847619
428.316,0.00871626
428.416,0.00896065
428.516,0.00920932
428.616,0.00946227
428.716,0.00971946
428.816,0.00998087
428.916,0.0102465
429.016,0.0105162
429.116,0.0107901
429.216,0.011068
429.316,0.0113499
429.416,0.0116357
429.516,0.0119255
429.616,0.012219
429.716,0.0125163
429.816,0.0128173
429.916,0.0131219
430.016,0.01343
430.116,0.0137415
430.216,0.0140563
430.316,0.0143743
430.416,0.0146955
430.516,0.0150196
430.616,0.0153467
430.716,0.0156765
430.816,0.0160089
430.916,0.0163439
431.016,0.0166812
431.116,0.0170208
431.216,0.0173624
431.316,0.017706
431.416,0.0180514
431.516,0.0183984
431.616,0.0187469
431.716,0.0190966
431.816,0.0194475
431.916,0.0197993
432.016,0.0201519
432.116,0.0205051
432.216,0.0208586
432.316,0.0212124
432.416,0.0215662
432.516,0.0219198
432.616,0.022273
432.716,0.0226256
432.816,0.0229774
432.916,0.0233282
433.016,0.0236778
433.116,0.0240259
433.216,0.0243724
433.316,0.024717
433.416,0.0250595
433.516,0.0253997
433.616,0.0257374
433.716,0.0260724
433.816,0.0264043
433.916,0.0267331
434.016,0.0270584
434.116,0.0273801
434.216,0.0276979
434.316,0.0280116
434.416,0.028321
434.516,0.0286259
434.616,0.028926
434.716,0.0292211
434.816,0.0295111
434.916,0.0297956
435.016,0.0300745
435.116,0.0303477
435.216,0.0306148
435.316,0.0308756
435.416,0.0311301
435.516,0.0313779
435.616,0.0316189
435.716,0.0318529
435.816,0.0320798
435.916,0.0322992
436.016,0.0325112
436.116,0.0327154
436.216,0.0329118
436.316,0.0331002
436.416,0.0332804
436.516,0.0334523
436.616,0.0336157
436.716,0.0337706
436.816,0.0339167
436.916,0.034054
437.016,0.0341824
437.116,0.0343017
437.216,0.0344119
437.316,0.0345129
437.416,0.0346045
437.516,0.0346867
437.616,0.0347595
437.716,0.0348228
437.816,0.0348765
437.916,0.0349205
438.016,0.0349549
438.116,0.0349797
438.216,0.0349947
438.316,0.035
438.416,0.0349946
438.516,0.0349772
438.616,0.0349479
438.716,0.0349068
438.816,0.0348538
438.916,0.034789
439.016,0.0347125
439.116,0.0346243
439.216,0.0345246
439.316,0.0344134
439.416,0.0342909
439.516,0.0341571
439.616,0.0340123
439.716,0.0338566
439.816,0.03369
439.916,0.0335129
440.016,0.0333253
440.116,0.0331274
440.216,0.0329195
440.316,0.0327018
440.416,0.0324744
440.516,0.0322376
440.616,0.0319916
440.716,0.0317366
440.816,0.0314729
440.916,0.0312008
441.016,0.0309205
441.116,0.0306322
441.216,0.0303363
441.316,0.030033
441.416,0.0297226
441.516,0.0294054
441.616,0.0290816
441.716,0.0287516
441.816,0.0284156
441.916,0.028074
442.016,0.027727
442.116,0.027375
442.216,0.0270182
442.316,0.026657
442.416,0.0262916
442.516,0.0259224
442.616,0.0255497
442.716,0.0251737
442.816,0.0247948
442.916,0.0244133
443.016,0.0240294
443.116,0.0236436
443.216,0.0232559
443.316,0.0228669
443.416,0.0224766
443.516,0.0220855
443.616,0.0216938
443.716,0.0213018
443.816,0.0209097
443.916,0.0205179
444.016,0.0201265
444.116,0.0197359
444.216,0.0193462
444.316,0.0189578
444.416,0.0185708
444.516,0.0181855
444.616,0.0178021
444.716,0.0174209
444.816,0.017042
444.916,0.0166657
445.016,0.0162921
445.116,0.0159215
445.216,0.015554
445.316,0.0151898
445.416,0.014829
445.516,0.0144719
445.616,0.0141186
445.716,0.0137692
445.816,0.0134238
445.916,0.0130827
446.016,0.0127459
446.116,0.0124135
446.216,0.0120857
446.316,0.0117625
446.416,0.011444
446.516,0.0111304
446.616,0.0108217
446.716,0.0105179
446.816,0.0102192
446.916,0.00992559
447.016,0.00963712
447.116,0.00935384
447.216,0.00907579
447.316,0.00880301
447.416,0.00853551
447.516,0.00827332
447.616,0.00801644
447.716,0.00776489
447.816,0.00751867
447.916,0.00727778
448.016,0.0070422
448.116,0.00681192
448.216,0.00658692
448.316,0.00636718
448.416,0.00615268
448.516,0.00594337
448.616,0.00573922
448.716,0.0055402
448.816,0.00534625
448.916,0.00515734
449.016,0.0049734
449.116,0.00479438
449.216,0.00462024
449.316,0.0044509
449.416,0.0042863
449.516,0.00412638
449.616,0.00397108
449.716,0.00382032
449.816,0.00367402
449.916,0.00353213
450.016,0.00339455
450.116,0.00326122
450.216,0.00313206
450.316,0.00300699
450.416,0.00288593
450.516,0.0027688
450.616,0.00265551
450.716,0.00254599
450.816,0.00244016
450.916,0.00233793
451.016,0.00223921
451.116,0.00214394
451.216,0.00205201
451.316,0.00196336
451.416,0.0018779
451.516,0.00179554
451.616,0.00171622
451.716,0.00163983
451.816,0.00156631
451.916,0.00149558
452.016,0.00142755
452.116,0.00136216
452.216,0.00129931
452.316,0.00123895
452.416,0.00118098
452.516,0.00112534
452.616,0.00107196
452.716,0.00102076
452.816,0.000971679
452.916,0.00092464
453.016,0.000879577
453.116,0.000836425
453.216,0.000795119
453.316,0.000755595
453.416,0.000717791
453.516,0.000681646
453.616,0.0006471
453.716,0.000614095
453.816,0.000582575
453.916,0.000552484
454.016,0.000523768
454.116,0.000496376
454.216,0.000470256
454.316,0.000445359
454.416,0.000421635
454.516,0.00039904
454.616,0.000377526
454.716,0.00035705
454.816,0.00033757
454.916,0.000319044
455.016,0.000301432
455.116,0.000284694
455.216,0.000268795
455.316,0.000253696
455.416,0.000239365
455.516,0.000225765
455.616,0.000212866
455.716,0.000200636
455.816,0.000189043
455.916,0.00017806
456.016,0.000167657
456.116,0.000157809
456.216,0.000148488
456.316,0.00013967
456.416,0.000131331
456.516,0.000123448
456.616,0.000115998
456.716,0.000108961
456.816,0.000102316
456.916,9.60428e-05
457.016,9.01238e-05
457.116,8.45408e-05
457.216,7.92767e-05
457.316,7.43149e-05
457.416,6.96399e-05
457.516,6.52368e-05
457.616,6.10912e-05
457.716,5.71895e-05
457.816,5.35188e-05
457.916,5.00666e-05
458.016,4.68211e-05
458.116,4.3771e-05
458.216,4.09057e-05
458.316,3.82149e-05
458.416,3.56889e-05
458.516,3.33186e-05
458.616,3.1095e-05
458.716,2.90099e-05
458.816,2.70555e-05
458.916,2.52241e-05
459.016,2.35086e-05
459.116,2.19023e-05
459.216,2.03989e-05
459.316,1.89921e-05
459.416,1.76764e-05
459.516,1.64461e-05
459.616,1.52963e-05
459.716,1.4222e-05
459.816,1.32187e-05
459.916,1.22819e-05
460.016,1.14077e-05
460.116,1.0592e-05
460.216,9.83134e-06
460.316,9.12218e-06
460.416,8.46128e-06
460.516,7.84559e-06
460.616,7.27222e-06
460.716,6.73845e-06
460.816,6.24173e-06
460.916,5.77965e-06
461.016,5.34996e-06
461.116,4.95052e-06
461.216,4.57934e-06
461.316,4.23455e-06
461.416,3.91438e-06
461.516,3.61719e-06
461.616,3.34142e-06
461.716,3.08562e-06
461.816,2.84843e-06
461.916,2.62858e-06
462.016,2.42487e-06
462.116,2.23618e-06
462.216,2.06147e-06
462.316,1.89977e-06
462.416,1.75015e-06
462.516,1.61176e-06
462.616,1.48381e-06
462.716,1.36556e-06
462.816,1.25629e-06
462.916,1.15538e-06
463.016,1.06221e-06
463.116,9.76219e-07
463.216,8.96885e-07
463.316,8.23716e-07
463.416,7.56259e-07
463.516,6.94089e-07
463.616,6.36813e-07
463.716,5.84063e-07
463.816,5.35501e-07
463.916,4.90809e-07
464.016,4.49693e-07
464.116,4.11881e-07
464.216,3.7712e-07
464.316,3.45175e-07
464.416,3.15828e-07
464.516,2.88877e-07
464.616,2.64136e-07
464.716,2.41432e-07
464.816,2.20604e-07
464.916,2.01504e-07
465.016,1.83995e-07
465.116,1.6795e-07
465.216,1.53252e-07
465.316,1.39793e-07
465.416,1.27472e-07
465.516,1.16197e-07
465.616,1.05884e-07
465.716,9.64525e-08
465.816,8.78316e-08
465.916,7.99539e-08
466.016,7.27579e-08
466.116,6.6187e-08
466.216,6.0189e-08
466.316,5.47159e-08
466.416,4.97235e-08
466.516,4.51712e-08
466.616,4.10216e-08
466.716,3.72406e-08
466.816,3.37965e-08
466.916,3.06605e-08
467.016,2.7806e-08
467.116,2.52086e-08
467.216,2.28461e-08
467.316,2.06979e-08
467.416,1.87453e-08
467.516,1.69712e-08
467.616,1.53597e-08
467.716,1.38964e-08
467.816,1.25683e-08
467.916,1.13633e-08
468.016,1.02702e-08
468.116,9.27918e-09
468.216,8.38091e-09
468.316,7.567e-09
468.416,6.82981e-09
468.516,6.16234e-09
468.616,5.5582e-09
468.716,5.01158e-09
468.816,4.51717e-09
468.916,4.07015e-09
469.016,3.66612e-09
469.116,3.30107e-09
469.216,2.97135e-09
469.316,2.67366e-09
469.416,2.40496e-09
469.516,2.16254e-09
469.616,1.94389e-09
469.716,1.74675e-09
469.816,1.56906e-09
469.916,1.40897e-09
470.016,1.26479e-09
470.116,1.13497e-09
470.216,1.01812e-09
470.316,9.13e-10
470.416,8.18451e-10
470.516,7.33443e-10
470.616,6.57039e-10
470.716,5.88395e-10
470.816,5.26742e-10
470.916,4.71388e-10
471.016,4.21707e-10
471.116,3.77134e-10
471.216,3.37157e-10
471.316,3.01315e-10
471.416,2.69191e-10
471.516,2.4041e-10
471.616,2.14633e-10
471.716,1.91554e-10
471.816,1.70899e-10
471.916,1.52419e-10
472.016,1.35891e-10
472.116,1.21114e-10
472.216,1.07906e-10
472.316,9.61068e-11
472.416,8.55682e-11
472.516,7.61593e-11
472.616,6.77618e-11
472.716,6.02697e-11
472.816,5.35877e-11
472.916,4.76302e-11
473.016,4.23206e-11
473.116,3.75901e-11
473.216,3.3377e-11
473.316,2.96259e-11
473.416,2.62875e-11
473.516,2.33173e-11
473.616,2.06756e-11
473.716,1.8327e-11
473.816,1.62396e-11
473.916,1.4385e-11
474.016,1.27379e-11
474.116,1.12756e-11
474.216,9.97769e-12
474.316,8.8262e-12
474.416,7.80493e-12
474.516,6.89947e-12
474.616,6.09698e-12
474.716,5.38599e-12
474.816,4.75629e-12
474.916,4.19878e-12
475.016,3.70535e-12
475.116,3.26879e-12
475.216,2.88269e-12
475.316,2.54132e-12
475.416,2.23961e-12
475.516,1.97305e-12
475.616,1.73762e-12
475.716,1.52977e-12
475.816,1.34631e-12
475.916,1.18446e-12
476.016,1.0417e-12
476.116,9.15842e-13
476.216,8.04913e-13
476.316,7.07179e-13
476.416,6.211e-13
476.516,5.45312e-13
476.616,4.78609e-13
476.716,4.19922e-13
476.816,3.68306e-13
476.916,3.22923e-13
477.016,2.83037e-13
477.116,2.47992e-13
477.216,2.17212e-13
477.316,1.90188e-13
477.416,1.66469e-13
477.516,1.45659e-13
477.616,1.27406e-13
477.716,1.11403e-13
477.816,9.73765e-14
477.916,8.50871e-14
478.016,7.43234e-14
478.116,6.48991e-14
478.216,5.66505e-14
478.316,4.94335e-14
478.416,4.31211e-14
478.516,3.7602e-14
478.616,3.27781e-14
478.716,2.85633e-14
478.816,2.48819e-14
478.916,2.16677e-14
479.016,1.88622e-14
479.116,1.64144e-14
479.216,1.42793e-14
479.316,1.24178e-14
479.416,1.07952e-14
479.516,9.38144e-15
479.616,8.15006e-15
479.716,7.07789e-15
479.816,6.14467e-15
479.916,5.33267e-15
480.016,4.6264e-15
480.116,4.0123e-15
480.216,3.47853e-15
480.316,3.01474e-15
480.416,2.61189e-15
480.516,2.2621e-15
480.616,1.95849e-15
480.716,1.69505e-15
480.816,1.46655e-15
480.916,1.26841e-15
481.016,1.09668e-15
481.116,9.47866e-16
481.216,8.18969e-16
481.316,7.07358e-16
481.416,6.1075e-16
481.516,5.27157e-16
481.616,4.54849e-16
481.716,3.92326e-16
481.816,3.38282e-16
481.916,2.91583e-16
482.016,2.51245e-16
482.116,2.16413e-16
482.216,1.86347e-16
482.316,1.60403e-16
482.416,1.38025e-16
482.516,1.18727e-16
482.616,1.02093e-16
482.716,8.77597e-17
482.816,7.54128e-17
482.916,6.47808e-17
483.016,5.56289e-17
483.116,4.77535e-17
483.216,4.09791e-17
483.316,3.51538e-17
483.416,3.01462e-17
483.516,2.58432e-17
483.616,2.21468e-17
483.716,1.89726e-17
483.816,1.62478e-17
483.916,1.39096e-17
484.016,1.19038e-17
484.116,1.01838e-17
484.216,8.70937e-18
484.316,7.44585e-18
484.416,6.36347e-18
484.516,5.43657e-18
484.616,4.6431e-18
484.716,3.96408e-18
484.816,3.38321e-18
484.916,2.88648e-18
485.016,2.46183e-18
485.116,2.09894e-18
485.216,1.78894e-18
485.316,1.5242e-18
485.416,1.29819e-18
485.516,1.10532e-18
485.616,9.40783e-19
485.716,8.00466e-19
485.816,6.80845e-19
485.916,5.78902e-19
486.016,4.92055e-19
486.116,4.18094e-19
486.216,3.5513e-19
486.316,3.01544e-19
486.416,2.55957e-19
486.516,2.17188e-19
486.616,1.84228e-19
486.716,1.56217e-19
486.816,1.32419e-19
486.916,1.12209e-19
487.016,9.50502e-20
487.116,8.04882e-20
487.216,6.81339e-20
487.316,5.76562e-20
487.416,4.87731e-20
487.516,4.12446e-20
487.616,3.48662e-20
487.716,2.94642e-20
487.816,2.48907e-20
487.916,2.10199e-20
488.016,1.7745e-20
488.116,1.49752e-20
488.216,1.26335e-20
488.316,1.06543e-20
488.416,8.98209e-21
488.516,7.56976e-21
488.616,6.37733e-21
488.716,5.3709e-21
488.816,4.52176e-21
488.916,3.80557e-21
489.016,3.20172e-21
489.116,2.69277e-21
489.216,2.26395e-21
489.316,1.90277e-21
489.416,1.59867e-21
489.516,1.34271e-21
489.616,1.12734e-21
489.716,9.46201e-22
489.816,7.93894e-22
489.916,6.65875e-22
490.016,5.5831e-22
490.116,4.67961e-22
490.216,3.92099e-22
490.316,3.28423e-22
490.416,2.74994e-22
490.516,2.30179e-22
490.616,1.92601e-22
490.716,1.61103e-22
490.816,1.3471e-22
490.916,1.12603e-22
491.016,9.40916e-23
491.116,7.85966e-23
491.216,6.56309e-23
491.316,5.47854e-23
491.416,4.57165e-23
491.516,3.81358e-23
491.616,3.18013e-23
491.716,2.65099e-23
491.816,2.20914e-23
491.916,1.84031e-23
492.016,1.53254e-23
492.116,1.2758e-23
492.216,1.06171e-23
492.316,8.83241e-24
492.416,7.34524e-24
492.516,6.10639e-24
492.616,5.07475e-24
492.716,4.21596e-24
492.816,3.50131e-24
492.916,2.90681e-24
493.016,2.41243e-24
493.116,2.00144e-24
493.216,1.65991e-24
493.316,1.37619e-24
493.416,1.14057e-24
493.516,9.44974e-25
493.616,7.82652e-25
493.716,6.47991e-25
493.816,5.36317e-25
493.916,4.43737e-25
494.016,3.67013e-25
494.116,3.03452e-25
494.216,2.50813e-25
494.316,2.07234e-25
494.416,1.71169e-25
494.516,1.41332e-25
494.616,1.16656e-25
494.716,9.62556e-26
494.816,7.93956e-26
494.916,6.54665e-26
495.016,5.39627e-26
495.116,4.44652e-26
495.216,3.66267e-26
495.316,3.01598e-26
495.416,2.48262e-26
495.516,2.04288e-26
495.616,1.68046e-26
495.716,1.38187e-26
495.816,1.13594e-26
495.916,9.33462e-27
496.016,7.66813e-27
496.116,6.29701e-27
496.216,5.16929e-27
496.316,4.24208e-27
496.416,3.48e-27
496.516,2.85385e-27
496.616,2.33957e-27
496.716,1.9173e-27
496.816,1.57072e-27
496.916,1.28635e-27
497.016,1.0531e-27
497.116,8.61852e-28
497.216,7.05095e-28
497.316,5.76653e-28
497.416,4.71447e-28
497.516,3.85304e-28
497.616,3.14793e-28
497.716,2.57099e-28
497.816,2.09906e-28
497.916,1.71318e-28
498.016,1.39776e-28
498.116,1.14003e-28
498.216,9.29498e-29
498.316,7.57589e-29
498.416,6.17263e-29
498.516,5.02758e-29
498.616,4.09355e-29
498.716,3.33191e-29
498.816,2.71105e-29
498.916,2.20513e-29
499.016,1.793e-29
499.116,1.45741e-29
499.216,1.18422e-29
499.316,9.61915e-30
499.416,7.81074e-30
499.516,6.34015e-30
499.616,5.14468e-30
499.716,4.1732e-30
499.816,3.38402e-30
499.916,2.74313e-30
500.016,2.22287e-30
500.116,1.80066e-30
500.216,1.45815e-30
500.316,1.18039e-30
500.416,9.55208e-31
500.516,7.72722e-31
500.616,6.24886e-31
500.716,5.05162e-31
500.816,4.08236e-31
500.916,3.29795e-31
501.016,2.66336e-31
501.116,2.15014e-31
501.216,1.73522e-31
501.316,1.39989e-31
501.416,1.12898e-31
501.516,9.10189e-32
501.616,7.33546e-32
501.716,5.90984e-32
501.816,4.75965e-32
501.916,3.83201e-32
502.016,3.08411e-32
502.116,2.48133e-32
502.216,1.99568e-32
502.316,1.60454e-32
502.416,1.28962e-32
502.516,1.03615e-32
502.616,8.3222e-33
502.716,6.68197e-33
502.816,5.36318e-33
502.916,4.30321e-33
503.016,3.45155e-33
503.116,2.7675e-33
503.216,2.21826e-33
503.316,1.77742e-33
503.416,1.4237e-33
503.516,1.13999e-33
503.616,9.125e-34
503.716,7.30159e-34
503.816,5.84055e-34
503.916,4.67027e-34
504.016,3.73321e-34
504.116,2.98314e-34
504.216,2.38297e-34
504.316,1.90289e-34
504.416,1.51901e-34
504.516,1.21216e-34
504.616,9.66967e-35
504.716,7.71107e-35
504.816,6.14709e-35
504.916,4.89865e-35
505.016,3.90243e-35
505.116,3.10774e-35
505.216,2.47404e-35
505.316,1.96889e-35
505.416,1.56634e-35
505.516,1.24568e-35
505.616,9.90318e-36
505.716,7.87038e-36
505.816,6.25272e-36
505.916,4.96586e-36
506.016,3.9425e-36
506.116,3.12896e-36
506.216,2.48245e-36
506.316,1.96885e-36
506.416,1.56098e-36
506.516,1.23718e-36
506.616,9.80215e-37
506.716,7.76357e-37
506.816,6.14685e-37
506.916,4.86515e-37
507.016,3.84939e-37
507.116,3.04466e-37
507.216,2.40734e-37
507.316,1.90278e-37
507.416,1.50346e-37
507.516,1.18753e-37
507.616,9.37675e-38
507.716,7.40134e-38
507.816,5.8401e-38
507.916,4.60662e-38
508.016,3.63242e-38
508.116,2.86327e-38
508.216,2.25621e-38
508.316,1.77725e-38
508.416,1.39949e-38
508.516,1.10165e-38
508.616,8.66897e-39
508.716,6.81937e-39
508.816,5.36256e-39
508.916,4.21554e-39
509.016,3.31272e-39
509.116,2.60237e-39
509.216,2.04364e-39
509.316,1.60432e-39
509.416,1.25902e-39
509.516,9.87696e-40
509.616,7.7458e-40
509.716,6.07241e-40
509.816,4.75892e-40
509.916,3.72827e-40
510.016,2.91983e-40
510.116,2.28591e-40
510.216,1.78902e-40
510.316,1.39965e-40
510.416,1.09466e-40
510.516,8.55831e-41
510.616,6.68882e-41
510.716,5.22592e-41
510.816,4.08158e-41
510.916,3.18673e-41
511.016,2.48722e-41
511.116,1.9406e-41
511.216,1.51359e-41
511.316,1.18014e-41
511.416,9.19832e-42
511.516,7.16699e-42
511.616,5.58234e-42
511.716,4.34659e-42
511.816,3.38324e-42
511.916,2.6325e-42
512.016,2.04765e-42
512.116,1.59219e-42
512.216,1.23761e-42
512.316,9.61675e-43
512.416,7.47004e-43
512.516,5.80055e-43
512.616,4.50265e-43
512.716,3.49396e-43
512.816,2.71032e-43
512.916,2.10172e-43
513.016,1.62922e-43
513.116,1.26252e-43
513.216,9.78018e-44
513.316,7.5737e-44
513.416,5.86302e-44
513.516,4.53718e-44
513.616,3.50997e-44
513.716,2.71439e-44
513.816,2.09842e-44
513.916,1.62168e-44
514.016,1.25282e-44
514.116,9.67531e-45
514.216,7.46952e-45
514.316,5.76464e-45
514.416,4.44738e-45
514.516,3.42995e-45
514.616,2.64437e-45
514.716,2.03803e-45
514.816,1.57018e-45
514.916,1.20931e-45
515.016,9.31069e-46
515.116,7.16599e-46
515.216,5.51344e-46
515.316,4.24053e-46
515.416,3.2604e-46
515.516,2.50595e-46
515.616,1.92542e-46
515.716,1.47887e-46
515.816,1.1355e-46
515.916,8.71561e-47
516.016,6.68742e-47
516.116,5.12946e-47
516.216,3.93311e-47
516.316,3.01476e-47
516.416,2.31005e-47
516.516,1.76946e-47
516.616,1.35492e-47
516.716,1.03714e-47
516.816,7.93621e-48
516.916,6.07072e-48
517.016,4.64216e-48
517.116,3.54855e-48
517.216,2.71165e-48
517.316,2.07142e-48
517.416,1.58182e-48
517.516,1.20752e-48
517.616,9.21478e-49
517.716,7.02954e-49
517.816,5.3607e-49
517.916,4.08665e-49
518.016,3.11433e-49
518.116,2.37255e-49
518.216,1.80683e-49
518.316,1.37553e-49
518.416,1.04683e-49
518.516,7.96401e-50
518.616,6.05676e-50
518.716,4.6047e-50
518.816,3.49956e-50
518.916,2.65875e-50
519.016,2.01927e-50
519.116,1.53307e-50
519.216,1.16354e-50
519.316,8.82783e-51
519.416,6.69541e-51
519.516,5.07637e-51
519.616,3.84751e-51
519.716,2.91514e-51
519.816,2.20795e-51
519.916,1.67176e-51
520.016,1.26534e-51
520.116,9.57401e-52
520.216,7.24156e-52
520.316,5.47548e-52
520.416,4.1387e-52
520.516,3.12722e-52
520.616,2.36213e-52
520.716,1.78362e-52
520.816,1.34633e-52
520.916,1.0159e-52
521.016,7.66311e-53
521.116,5.77843e-53
521.216,4.35578e-53
521.316,3.28227e-53
521.416,2.47249e-53
521.516,1.86186e-53
521.616,1.40156e-53
521.716,1.0547e-53
521.816,7.93406e-54
521.916,5.96643e-54
522.016,4.48525e-54
522.116,3.37062e-54
522.216,2.53212e-54
522.316,1.90157e-54
522.416,1.42755e-54
522.516,1.07132e-54
522.616,8.03717e-55
522.716,6.02751e-55
522.816,4.51881e-55
522.916,3.38658e-55
523.016,2.53718e-55
523.116,1.90017e-55
523.216,1.42261e-55
523.316,1.06471e-55
523.416,7.9658e-56
523.516,5.9577e-56
523.616,4.4543e-56
523.716,3.32914e-56
523.816,2.48735e-56
523.916,1.85777e-56
524.016,1.38708e-56
524.116,1.03529e-56
524.216,7.72455e-57
524.316,5.76152e-57
524.416,4.29588e-57
524.516,3.20199e-57
524.616,2.38583e-57
524.716,1.77709e-57
524.816,1.32322e-57
524.916,9.84936e-58
525.016,7.32883e-58
525.116,5.45146e-58
525.216,4.05362e-58
525.316,3.01318e-58
525.416,2.23903e-58
525.516,1.6632e-58
525.616,1.23505e-58
525.716,9.16796e-59
525.816,6.80321e-59
525.916,5.0467e-59
526.016,3.74242e-59
526.116,2.77427e-59
526.216,2.05588e-59
526.316,1.523e-59
526.416,1.12785e-59
526.516,8.3494e-60
526.616,6.1789e-60
526.716,4.57108e-60
526.816,3.38048e-60
526.916,2.49914e-60
527.016,1.84695e-60
527.116,1.36449e-60
527.216,1.00771e-60
527.316,7.4397e-61
527.416,5.49068e-61
527.516,4.05088e-61
527.616,2.98761e-61
527.716,2.20267e-61
527.816,1.62341e-61
527.916,1.19607e-61
528.016,8.80927e-62
528.116,6.48595e-62
528.216,4.77374e-62
528.316,3.51234e-62
528.416,2.58336e-62
528.516,1.89944e-62
528.616,1.39611e-62
528.716,1.0258e-62
528.816,7.53461e-63
528.916,5.53235e-63
529.016,4.06078e-63
529.116,2.97963e-63
529.216,2.18557e-63
529.316,1.60259e-63
529.416,1.17471e-63
529.516,8.60773e-64
529.616,6.30521e-64
529.716,4.61703e-64
529.816,3.3797e-64
529.916,2.47312e-64
530.016,1.8091e-64
530.116,1.32292e-64
530.216,9.67066e-65
530.316,7.06693e-65
530.416,5.16246e-65
530.516,3.76994e-65
530.616,2.7521e-65
530.716,2.00838e-65
530.816,1.46514e-65
530.916,1.06847e-65
531.016,7.78935e-66
531.116,5.67663e-66
531.216,4.13553e-66
531.316,3.01178e-66
531.416,2.19264e-66
531.516,1.59575e-66
531.616,1.16095e-66
531.716,8.4433e-67
531.816,6.13853e-67
531.916,4.46137e-67
532.016,3.24133e-67
532.116,2.35413e-67
532.216,1.70919e-67
532.316,1.24051e-67
532.416,9.00044e-68
532.516,6.52797e-68
532.616,4.73309e-68
532.716,3.43055e-68
532.816,2.48561e-68
532.916,1.80034e-68
533.016,1.30356e-68
533.116,9.43529e-69
533.216,6.82704e-69
533.316,4.93813e-69
533.416,3.57062e-69
533.516,2.58093e-69
533.616,1.86492e-69
533.716,1.34709e-69
533.816,9.72718e-70
533.916,7.02146e-70
534.016,5.06663e-70
534.116,3.6548e-70
534.216,2.63548e-70
534.316,1.8998e-70
534.416,1.36901e-70
534.516,9.86185e-71
534.616,7.10169e-71
534.716,5.11231e-71
534.816,3.67895e-71
534.916,2.64657e-71
535.016,1.90324e-71
535.116,1.36822e-71
535.216,9.83265e-72
535.316,7.06377e-72
535.416,5.07288e-72
535.516,3.64187e-72
535.616,2.61364e-72
535.716,1.87508e-72
535.816,1.34476e-72
535.916,9.64102e-73
536.016,6.90958e-73
536.116,4.95031e-73
536.216,3.5454e-73
536.316,2.53834e-73
536.416,1.81671e-73
536.516,1.2998e-73
536.616,9.29641e-74
536.716,6.64672e-74
536.816,4.75063e-74
536.916,3.39427e-74
537.016,2.42434e-74
537.116,1.73099e-74
537.216,1.23551e-74
537.316,8.81552e-75
537.416,6.28786e-75
537.516,4.48342e-75
537.616,3.19571e-75
537.716,2.27708e-75
537.816,1.62196e-75
537.916,1.15493e-75
538.016,8.22092e-76
538.116,5.84976e-76
538.216,4.1611e-76
538.316,2.95889e-76
538.416,2.10331e-76
538.516,1.49461e-76
538.616,1.06171e-76
538.716,7.53934e-77
538.816,5.35197e-77
538.916,3.79793e-77
539.016,2.69421e-77
539.116,1.91059e-77
539.216,1.35443e-77
539.316,9.59831e-78
539.416,6.79965e-78
539.516,4.81537e-78
539.616,3.40899e-78
539.716,2.41253e-78
539.816,1.70676e-78
539.916,1.20704e-78
540.016,8.53346e-79
540.116,6.03087e-79
540.216,4.26075e-79
540.316,3.00915e-79
540.416,2.12449e-79
540.516,1.4994e-79
540.616,1.05787e-79
540.716,7.46098e-80
540.816,5.26034e-80
540.916,3.70751e-80
541.016,2.61218e-80
541.116,1.83983e-80
541.216,1.29539e-80
541.316,9.11755e-81
541.416,6.41515e-81
541.516,4.51219e-81
541.616,3.17263e-81
541.716,2.22999e-81
541.816,1.56689e-81
541.916,1.10059e-81
542.016,7.72799e-82
542.116,5.42448e-82
542.216,3.80628e-82
542.316,2.66991e-82
542.416,1.87216e-82
542.516,1.31233e-82
542.616,9.19586e-83
542.716,6.44161e-83
542.816,4.51075e-83
542.916,3.15759e-83
543.016,2.2096e-83
543.116,1.54569e-83
543.216,1.0809e-83
543.316,7.5561e-84
543.416,5.28036e-84
543.516,3.68876e-84
543.616,2.57602e-84
543.716,1.79833e-84
543.816,1.255e-84
543.916,8.75523e-85
544.016,6.10582e-85
544.116,4.25669e-85
544.216,2.96655e-85
544.316,2.06673e-85
544.416,1.43935e-85
544.516,1.00208e-85
544.616,6.97414e-86
544.716,4.8521e-86
544.816,3.37459e-86
544.916,2.34619e-86
545.016,1.63064e-86
545.116,1.13294e-86
545.216,7.86871e-87
545.316,5.46328e-87
545.416,3.79189e-87
545.516,2.63093e-87
545.616,1.8248e-87
545.716,1.26524e-87
545.816,8.76966e-88
545.916,6.07637e-88
546.016,4.20879e-88
546.116,2.91422e-88
546.216,2.01715e-88
546.316,1.39575e-88
546.416,9.65447e-89
546.516,6.67576e-89
546.616,4.6145e-89
546.716,3.18861e-89
546.816,2.20257e-89
546.916,1.52093e-89
547.016,1.04988e-89
547.116,7.24475e-90
547.216,4.99757e-90
547.316,3.44624e-90
547.416,2.37566e-90
547.516,1.6371e-90
547.616,1.12776e-90
547.716,7.76627e-91
547.816,5.34637e-91
547.916,3.67923e-91
548.016,2.53109e-91
548.116,1.74064e-91
548.216,1.19664e-91
548.316,8.22372e-92
548.416,5.6497e-92
548.516,3.88003e-92
548.616,2.66376e-92
548.716,1.82814e-92
548.816,1.25422e-92
548.916,8.60181e-93
549.016,5.89737e-93
549.116,4.04183e-93
549.216,2.76917e-93
549.316,1.89659e-93
549.416,1.29852e-93
549.516,8.88746e-94
549.616,6.08075e-94
549.716,4.15899e-94
549.816,2.84362e-94
549.916,1.9436e-94
550.016,1.32798e-94
550.116,9.07051e-95
550.216,6.1933e-95
550.316,4.22731e-95
550.416,2.88442e-95
550.516,1.96745e-95
550.616,1.34154e-95
550.716,9.14434e-96
550.816,6.23094e-96
550.916,4.24431e-96
551.016,2.8901e-96
551.116,1.96729e-96
551.216,1.33868e-96
551.316,9.10624e-97
551.416,6.19229e-97
551.516,4.20936e-97
551.616,2.86043e-97
551.716,1.94312e-97
551.816,1.31953e-97
551.916,8.9576e-98
552.016,6.07877e-98
552.116,4.12374e-98
552.216,2.79652e-98
552.316,1.89582e-98
552.416,1.28478e-98
552.516,8.70384e-99
552.616,5.89448e-99
552.716,3.99054e-99
552.816,2.70066e-99
552.916,1.82709e-99
553.016,1.23567e-99
553.116,8.35404e-100
553.216,5.64602e-100
553.316,3.81452e-100
553.416,2.57626e-100
553.516,1.73936e-100
553.616,1.17393e-100
553.716,7.92042e-101
553.816,5.34201e-101
553.916,3.60175e-101
554.016,2.42758e-101
554.116,1.63563e-101
554.216,1.10167e-101
554.316,7.41765e-102
554.416,4.99268e-102
554.516,3.35934e-102
554.616,2.25957e-102
554.716,1.51932e-102
554.816,1.02123e-102
554.916,6.862e-103
555.016,4.60924e-103
555.116,3.09499e-103
555.216,2.07751e-103
555.316,1.39404e-103
555.416,9.35111e-104
555.516,6.27048e-104
555.616,4.2033e-104
555.716,2.81665e-104
555.816,1.8868e-104
555.916,1.26349e-104
556.016,8.45802e-105
556.116,5.66002e-105
556.216,3.78633e-105
556.316,2.53204e-105
556.416,1.69268e-105
556.516,1.13118e-105
556.616,7.55685e-106
556.716,5.04662e-106
556.816,3.36909e-106
556.916,2.24842e-106
557.016,1.5e-106
557.116,1.00037e-106
557.216,6.66928e-107
557.316,4.44478e-107
557.416,2.96124e-107
557.516,1.97219e-107
557.616,1.31303e-107
557.716,8.73883e-108
557.816,5.81411e-108
557.916,3.86692e-108
558.016,2.57099e-108
558.116,1.70878e-108
558.216,1.13533e-108
558.316,7.54072e-109
558.416,5.00673e-109
558.516,3.32313e-109
558.616,2.20492e-109
558.716,1.46248e-109
558.816,9.69702e-110
558.916,6.42745e-110
559.016,4.25884e-110
559.116,2.82095e-110
559.216,1.86789e-110
559.316,1.2364e-110
559.416,8.18125e-111
559.516,5.41167e-111
559.616,3.57845e-111
559.716,2.36543e-111
559.816,1.56306e-111
559.916,1.03251e-111
560.016,6.81816e-112
560.116,4.5008e-112
560.216,2.97005e-112
560.316,1.95925e-112
560.416,1.29202e-112
560.516,8.51724e-113
560.616,5.61281e-113
560.716,3.69755e-113
560.816,2.43501e-113
560.916,1.60301e-113
561.016,1.05494e-113
561.116,6.94013e-114
561.216,4.56416e-114
561.316,3.00058e-114
561.416,1.97198e-114
561.516,1.29554e-114
561.616,8.50846e-115
561.716,5.58603e-115
561.816,3.66612e-115
561.916,2.40526e-115
562.016,1.5775e-115
562.116,1.03426e-115
562.216,6.77862e-116
562.316,4.44124e-116
562.416,2.90884e-116
562.516,1.90452e-116
562.616,1.24654e-116
562.716,8.15597e-117
562.816,5.33455e-117
562.916,3.48796e-117
563.016,2.27981e-117
563.116,1.48962e-117
563.216,9.72984e-118
563.316,6.35313e-118
563.416,4.14687e-118
563.516,2.70586e-118
563.616,1.76499e-118
563.716,1.15089e-118
563.816,7.50193e-119
563.916,4.88839e-119
564.016,3.18427e-119
564.116,2.07351e-119
564.216,1.34975e-119
564.316,8.78323e-120
564.416,5.71355e-120
564.516,3.71544e-120
564.616,2.41527e-120
564.716,1.56954e-120
564.816,1.01961e-120
564.916,6.6213e-121
565.016,4.29839e-121
565.116,2.78946e-121
565.216,1.80962e-121
565.316,1.17356e-121
565.416,7.60809e-122
565.516,4.93058e-122
565.616,3.19427e-122
565.716,2.0687e-122
565.816,1.33929e-122
565.916,8.66772e-123
566.016,5.60772e-123
566.116,3.62676e-123
566.216,2.34479e-123
566.316,1.51545e-123
566.416,9.79106e-124
566.516,6.32368e-124
566.616,4.08284e-124
566.716,2.63516e-124
566.816,1.70021e-124
566.916,1.09661e-124
567.016,7.0705e-125
567.116,4.55724e-125
567.216,2.93633e-125
567.316,1.8913e-125
567.416,1.21778e-125
567.516,7.83838e-126
567.616,5.04356e-126
567.716,3.24414e-126
567.816,2.086e-126
567.916,1.34085e-126
568.016,8.61585e-127
568.116,5.53437e-127
568.216,3.55377e-127
568.316,2.2812e-127
568.416,1.46382e-127
568.516,9.39001e-128
568.616,6.02137e-128
568.716,3.8599e-128
568.816,2.47348e-128
568.916,1.58451e-128
569.016,1.01468e-128
569.116,6.49559e-129
569.216,4.1568e-129
569.316,2.6592e-129
569.416,1.70057e-129
569.516,1.08715e-129
569.616,6.94765e-130
569.716,4.43851e-130