File: inn/kurimoto_2004/as_grown/raman/curve_2_fit.dat
422.016,0.00143835
422.116,0.00144264
422.216,0.00144694
422.316,0.00145127
422.416,0.00145561
422.516,0.00145997
422.616,0.00146436
422.716,0.00146876
422.816,0.00147318
422.916,0.00147762
423.016,0.00148209
423.116,0.00148657
423.216,0.00149107
423.316,0.00149559
423.416,0.00150014
423.516,0.0015047
423.616,0.00150929
423.716,0.00151389
423.816,0.00151852
423.916,0.00152317
424.016,0.00152784
424.116,0.00153253
424.216,0.00153725
424.316,0.00154198
424.416,0.00154674
424.516,0.00155152
424.616,0.00155632
424.716,0.00156114
424.816,0.00156599
424.916,0.00157085
425.016,0.00157575
425.116,0.00158066
425.216,0.0015856
425.316,0.00159056
425.416,0.00159554
425.516,0.00160054
425.616,0.00160558
425.716,0.00161063
425.816,0.00161571
425.916,0.00162081
426.016,0.00162593
426.116,0.00163108
426.216,0.00163626
426.316,0.00164146
426.416,0.00164668
426.516,0.00165193
426.616,0.0016572
426.716,0.0016625
426.816,0.00166783
426.916,0.00167318
427.016,0.00167856
427.116,0.00168396
427.216,0.00168939
427.316,0.00169484
427.416,0.00170032
427.516,0.00170583
427.616,0.00171136
427.716,0.00171692
427.816,0.00172251
427.916,0.00172813
428.016,0.00173377
428.116,0.00173944
428.216,0.00174514
428.316,0.00175086
428.416,0.00175662
428.516,0.0017624
428.616,0.00176821
428.716,0.00177405
428.816,0.00177992
428.916,0.00178582
429.016,0.00179175
429.116,0.0017977
429.216,0.00180369
429.316,0.00180971
429.416,0.00181575
429.516,0.00182183
429.616,0.00182794
429.716,0.00183407
429.816,0.00184024
429.916,0.00184644
430.016,0.00185267
430.116,0.00185894
430.216,0.00186523
430.316,0.00187156
430.416,0.00187792
430.516,0.00188431
430.616,0.00189073
430.716,0.00189719
430.816,0.00190368
430.916,0.0019102
431.016,0.00191676
431.116,0.00192335
431.216,0.00192997
431.316,0.00193663
431.416,0.00194332
431.516,0.00195005
431.616,0.00195681
431.716,0.00196361
431.816,0.00197045
431.916,0.00197731
432.016,0.00198422
432.116,0.00199116
432.216,0.00199814
432.316,0.00200515
432.416,0.0020122
432.516,0.00201929
432.616,0.00202642
432.716,0.00203358
432.816,0.00204078
432.916,0.00204802
433.016,0.0020553
433.116,0.00206261
433.216,0.00206997
433.316,0.00207736
433.416,0.0020848
433.516,0.00209227
433.616,0.00209979
433.716,0.00210734
433.816,0.00211494
433.916,0.00212258
434.016,0.00213025
434.116,0.00213797
434.216,0.00214574
434.316,0.00215354
434.416,0.00216139
434.516,0.00216928
434.616,0.00217721
434.716,0.00218519
434.816,0.00219321
434.916,0.00220127
435.016,0.00220938
435.116,0.00221753
435.216,0.00222573
435.316,0.00223397
435.416,0.00224226
435.516,0.0022506
435.616,0.00225898
435.716,0.00226741
435.816,0.00227589
435.916,0.00228441
436.016,0.00229298
436.116,0.0023016
436.216,0.00231027
436.316,0.00231899
436.416,0.00232776
436.516,0.00233657
436.616,0.00234544
436.716,0.00235436
436.816,0.00236332
436.916,0.00237234
437.016,0.00238141
437.116,0.00239054
437.216,0.00239971
437.316,0.00240894
437.416,0.00241822
437.516,0.00242755
437.616,0.00243694
437.716,0.00244638
437.816,0.00245588
437.916,0.00246544
438.016,0.00247504
438.116,0.00248471
438.216,0.00249443
438.316,0.00250421
438.416,0.00251405
438.516,0.00252394
438.616,0.00253389
438.716,0.0025439
438.816,0.00255397
438.916,0.0025641
439.016,0.00257429
439.116,0.00258454
439.216,0.00259486
439.316,0.00260523
439.416,0.00261567
439.516,0.00262616
439.616,0.00263673
439.716,0.00264735
439.816,0.00265804
439.916,0.0026688
440.016,0.00267962
440.116,0.0026905
440.216,0.00270145
440.316,0.00271247
440.416,0.00272356
440.516,0.00273471
440.616,0.00274593
440.716,0.00275722
440.816,0.00276858
440.916,0.00278002
441.016,0.00279152
441.116,0.00280309
441.216,0.00281474
441.316,0.00282645
441.416,0.00283824
441.516,0.00285011
441.616,0.00286205
441.716,0.00287406
441.816,0.00288615
441.916,0.00289831
442.016,0.00291056
442.116,0.00292287
442.216,0.00293527
442.316,0.00294775
442.416,0.00296031
442.516,0.00297294
442.616,0.00298566
442.716,0.00299846
442.816,0.00301134
442.916,0.0030243
443.016,0.00303735
443.116,0.00305048
443.216,0.0030637
443.316,0.003077
443.416,0.00309039
443.516,0.00310386
443.616,0.00311743
443.716,0.00313108
443.816,0.00314482
443.916,0.00315866
444.016,0.00317258
444.116,0.0031866
444.216,0.00320071
444.316,0.00321491
444.416,0.00322921
444.516,0.0032436
444.616,0.00325809
444.716,0.00327267
444.816,0.00328735
444.916,0.00330214
445.016,0.00331702
445.116,0.003332
445.216,0.00334708
445.316,0.00336227
445.416,0.00337756
445.516,0.00339295
445.616,0.00340845
445.716,0.00342405
445.816,0.00343976
445.916,0.00345558
446.016,0.00347151
446.116,0.00348755
446.216,0.0035037
446.316,0.00351996
446.416,0.00353633
446.516,0.00355282
446.616,0.00356942
446.716,0.00358614
446.816,0.00360298
446.916,0.00361993
447.016,0.00363701
447.116,0.0036542
447.216,0.00367152
447.316,0.00368896
447.416,0.00370652
447.516,0.00372421
447.616,0.00374203
447.716,0.00375997
447.816,0.00377804
447.916,0.00379625
448.016,0.00381458
448.116,0.00383305
448.216,0.00385165
448.316,0.00387038
448.416,0.00388925
448.516,0.00390826
448.616,0.00392741
448.716,0.0039467
448.816,0.00396613
448.916,0.0039857
449.016,0.00400542
449.116,0.00402529
449.216,0.0040453
449.316,0.00406546
449.416,0.00408577
449.516,0.00410624
449.616,0.00412685
449.716,0.00414763
449.816,0.00416855
449.916,0.00418964
450.016,0.00421089
450.116,0.0042323
450.216,0.00425387
450.316,0.0042756
450.416,0.0042975
450.516,0.00431957
450.616,0.00434181
450.716,0.00436422
450.816,0.00438681
450.916,0.00440956
451.016,0.0044325
451.116,0.00445561
451.216,0.00447891
451.316,0.00450238
451.416,0.00452605
451.516,0.00454989
451.616,0.00457393
451.716,0.00459815
451.816,0.00462257
451.916,0.00464718
452.016,0.00467199
452.116,0.00469699
452.216,0.0047222
452.316,0.00474761
452.416,0.00477322
452.516,0.00479904
452.616,0.00482507
452.716,0.00485131
452.816,0.00487776
452.916,0.00490443
453.016,0.00493131
453.116,0.00495842
453.216,0.00498575
453.316,0.00501331
453.416,0.00504109
453.516,0.00506911
453.616,0.00509735
453.716,0.00512584
453.816,0.00515456
453.916,0.00518352
454.016,0.00521272
454.116,0.00524217
454.216,0.00527187
454.316,0.00530182
454.416,0.00533203
454.516,0.00536249
454.616,0.00539322
454.716,0.0054242
454.816,0.00545546
454.916,0.00548698
455.016,0.00551878
455.116,0.00555085
455.216,0.0055832
455.316,0.00561583
455.416,0.00564874
455.516,0.00568195
455.616,0.00571544
455.716,0.00574924
455.816,0.00578333
455.916,0.00581772
456.016,0.00585242
456.116,0.00588743
456.216,0.00592275
456.316,0.00595839
456.416,0.00599434
456.516,0.00603063
456.616,0.00606724
456.716,0.00610418
456.816,0.00614146
456.916,0.00617908
457.016,0.00621705
457.116,0.00625536
457.216,0.00629402
457.316,0.00633305
457.416,0.00637243
457.516,0.00641218
457.616,0.0064523
457.716,0.0064928
457.816,0.00653368
457.916,0.00657494
458.016,0.00661659
458.116,0.00665863
458.216,0.00670108
458.316,0.00674392
458.416,0.00678718
458.516,0.00683085
458.616,0.00687494
458.716,0.00691946
458.816,0.0069644
458.916,0.00700979
459.016,0.00705561
459.116,0.00710188
459.216,0.00714861
459.316,0.00719579
459.416,0.00724344
459.516,0.00729156
459.616,0.00734016
459.716,0.00738924
459.816,0.00743881
459.916,0.00748888
460.016,0.00753945
460.116,0.00759053
460.216,0.00764213
460.316,0.00769425
460.416,0.0077469
460.516,0.00780009
460.616,0.00785383
460.716,0.00790811
460.816,0.00796296
460.916,0.00801837
461.016,0.00807436
461.116,0.00813094
461.216,0.0081881
461.316,0.00824586
461.416,0.00830424
461.516,0.00836323
461.616,0.00842284
461.716,0.00848309
461.816,0.00854398
461.916,0.00860552
462.016,0.00866772
462.116,0.0087306
462.216,0.00879415
462.316,0.00885839
462.416,0.00892334
462.516,0.00898899
462.616,0.00905537
462.716,0.00912247
462.816,0.00919032
462.916,0.00925891
463.016,0.00932827
463.116,0.00939841
463.216,0.00946933
463.316,0.00954105
463.416,0.00961358
463.516,0.00968693
463.616,0.00976111
463.716,0.00983614
463.816,0.00991203
463.916,0.00998879
464.016,0.0100664
464.116,0.010145
464.216,0.0102244
464.316,0.0103048
464.416,0.0103861
464.516,0.0104684
464.616,0.0105517
464.716,0.0106359
464.816,0.0107212
464.916,0.0108074
465.016,0.0108947
465.116,0.010983
465.216,0.0110724
465.316,0.0111629
465.416,0.0112545
465.516,0.0113472
465.616,0.0114411
465.716,0.0115361
465.816,0.0116322
465.916,0.0117296
466.016,0.0118281
466.116,0.011928
466.216,0.012029
466.316,0.0121313
466.416,0.012235
466.516,0.0123399
466.616,0.0124462
466.716,0.0125538
466.816,0.0126628
466.916,0.0127732
467.016,0.0128851
467.116,0.0129984
467.216,0.0131132
467.316,0.0132295
467.416,0.0133473
467.516,0.0134667
467.616,0.0135877
467.716,0.0137102
467.816,0.0138345
467.916,0.0139604
468.016,0.0140879
468.116,0.0142173
468.216,0.0143483
468.316,0.0144812
468.416,0.0146159
468.516,0.0147525
468.616,0.0148909
468.716,0.0150313
468.816,0.0151736
468.916,0.015318
469.016,0.0154643
469.116,0.0156128
469.216,0.0157633
469.316,0.015916
469.416,0.0160709
469.516,0.016228
469.616,0.0163874
469.716,0.0165491
469.816,0.0167132
469.916,0.0168797
470.016,0.0170486
470.116,0.01722
470.216,0.017394
470.316,0.0175706
470.416,0.0177498
470.516,0.0179317
470.616,0.0181164
470.716,0.0183039
470.816,0.0184943
470.916,0.0186875
471.016,0.0188838
471.116,0.0190831
471.216,0.0192855
471.316,0.0194911
471.416,0.0196999
471.516,0.019912
471.616,0.0201275
471.716,0.0203464
471.816,0.0205688
471.916,0.0207948
472.016,0.0210245
472.116,0.0212579
472.216,0.0214951
472.316,0.0217362
472.416,0.0219813
472.516,0.0222304
472.616,0.0224837
472.716,0.0227412
472.816,0.0230031
472.916,0.0232694
473.016,0.0235402
473.116,0.0238157
473.216,0.0240959
473.316,0.0243809
473.416,0.0246709
473.516,0.0249659
473.616,0.0252661
473.716,0.0255716
473.816,0.0258825
473.916,0.0261989
474.016,0.026521
474.116,0.0268489
474.216,0.0271827
474.316,0.0275226
474.416,0.0278687
474.516,0.0282212
474.616,0.0285801
474.716,0.0289457
474.816,0.0293182
474.916,0.0296976
475.016,0.0300842
475.116,0.0304781
475.216,0.0308795
475.316,0.0312887
475.416,0.0317057
475.516,0.0321307
475.616,0.0325641
475.716,0.0330059
475.816,0.0334565
475.916,0.033916
476.016,0.0343846
476.116,0.0348626
476.216,0.0353502
476.316,0.0358477
476.416,0.0363553
476.516,0.0368732
476.616,0.0374019
476.716,0.0379415
476.816,0.0384923
476.916,0.0390546
477.016,0.0396287
477.116,0.040215
477.216,0.0408138
477.316,0.0414253
477.416,0.04205
477.516,0.0426882
477.616,0.0433403
477.716,0.0440066
477.816,0.0446876
477.916,0.0453836
478.016,0.0460951
478.116,0.0468225
478.216,0.0475663
478.316,0.0483268
478.416,0.0491046
478.516,0.0499001
478.616,0.050714
478.716,0.0515466
478.816,0.0523985
478.916,0.0532703
479.016,0.0541625
479.116,0.0550758
479.216,0.0560107
479.316,0.0569679
479.416,0.057948
479.516,0.0589517
479.616,0.0599797
479.716,0.0610326
479.816,0.0621113
479.916,0.0632165
480.016,0.0643489
480.116,0.0655094
480.216,0.0666988
480.316,0.0679179
480.416,0.0691676
480.516,0.0704489
480.616,0.0717626
480.716,0.0731098
480.816,0.0744914
480.916,0.0759084
481.016,0.0773619
481.116,0.078853
481.216,0.0803827
481.316,0.0819522
481.416,0.0835627
481.516,0.0852153
481.616,0.0869113
481.716,0.0886519
481.816,0.0904384
481.916,0.0922721
482.016,0.0941543
482.116,0.0960864
482.216,0.0980697
482.316,0.100106
482.416,0.102196
482.516,0.104341
482.616,0.106544
482.716,0.108805
482.816,0.111126
482.916,0.113509
483.016,0.115954
483.116,0.118463
483.216,0.121039
483.316,0.123681
483.416,0.126393
483.516,0.129174
483.616,0.132027
483.716,0.134952
483.816,0.137951
483.916,0.141025
484.016,0.144175
484.116,0.147402
484.216,0.150706
484.316,0.154088
484.416,0.15755
484.516,0.16109
484.616,0.164709
484.716,0.168407
484.816,0.172183
484.916,0.176037
485.016,0.179967
485.116,0.183973
485.216,0.188051
485.316,0.1922
485.416,0.196417
485.516,0.200699
485.616,0.205043
485.716,0.209442
485.816,0.213894
485.916,0.218391
486.016,0.222928
486.116,0.227498
486.216,0.232093
486.316,0.236704
486.416,0.241322
486.516,0.245937
486.616,0.250538
486.716,0.255114
486.816,0.259652
486.916,0.264138
487.016,0.26856
487.116,0.272901
487.216,0.277149
487.316,0.281286
487.416,0.285297
487.516,0.289166
487.616,0.292876
487.716,0.296411
487.816,0.299756
487.916,0.302893
488.016,0.305807
488.116,0.308484
488.216,0.31091
488.316,0.313071
488.416,0.314956
488.516,0.316555
488.616,0.317858
488.716,0.318857
488.816,0.319547
488.916,0.319924
489.016,0.319984
489.116,0.319715
489.216,0.319113
489.316,0.318181
489.416,0.316926
489.516,0.315356
489.616,0.313479
489.716,0.311307
489.816,0.308853
489.916,0.306131
490.016,0.303155
490.116,0.299942
490.216,0.296509
490.316,0.292872
490.416,0.289051
490.516,0.285061
490.616,0.280923
490.716,0.276652
490.816,0.272266
490.916,0.267783
491.016,0.263218
491.116,0.258587
491.216,0.253905
491.316,0.249187
491.416,0.244445
491.516,0.239693
491.616,0.234941
491.716,0.2302
491.816,0.22548
491.916,0.220791
492.016,0.21614
492.116,0.211534
492.216,0.20698
492.316,0.202484
492.416,0.198051
492.516,0.193685
492.616,0.189391
492.716,0.18517
492.816,0.181026
492.916,0.176961
493.016,0.172976
493.116,0.169074
493.216,0.165254
493.316,0.161518
493.416,0.157866
493.516,0.154297
493.616,0.150811
493.716,0.147409
493.816,0.144089
493.916,0.14085
494.016,0.137691
494.116,0.134612
494.216,0.13161
494.316,0.128686
494.416,0.125837
494.516,0.123062
494.616,0.120359
494.716,0.117727
494.816,0.115164
494.916,0.112669
495.016,0.11024
495.116,0.107875
495.216,0.105573
495.316,0.103333
495.416,0.101152
495.516,0.0990293
495.616,0.096963
495.716,0.0949517
495.816,0.0929939
495.916,0.0910881
496.016,0.0892327
496.116,0.0874264
496.216,0.0856678
496.316,0.0839555
496.416,0.0822882
496.516,0.0806645
496.616,0.0790831
496.716,0.077543
496.816,0.0760427
496.916,0.0745812
497.016,0.0731574
497.116,0.07177
497.216,0.070418
497.316,0.0691005
497.416,0.0678162
497.516,0.0665644
497.616,0.065344
497.716,0.064154
497.816,0.0629936
497.916,0.061862
498.016,0.0607582
498.116,0.0596815
498.216,0.058631
498.316,0.057606
498.416,0.0566058
498.516,0.0556295
498.616,0.0546766
498.716,0.0537464
498.816,0.0528381
498.916,0.0519512
499.016,0.0510851
499.116,0.0502391
499.216,0.0494126
499.316,0.0486052
499.416,0.0478163
499.516,0.0470454
499.616,0.0462919
499.716,0.0455553
499.816,0.0448353
499.916,0.0441313
500.016,0.0434429
500.116,0.0427697
500.216,0.0421112
500.316,0.041467
500.416,0.0408369
500.516,0.0402202
500.616,0.0396168
500.716,0.0390263
500.816,0.0384483
500.916,0.0378824
501.016,0.0373284
501.116,0.036786
501.216,0.0362548
501.316,0.0357345
501.416,0.0352249
501.516,0.0347257
501.616,0.0342366
501.716,0.0337574
501.816,0.0332877
501.916,0.0328275
502.016,0.0323763
502.116,0.0319341
502.216,0.0315005
502.316,0.0310754
502.416,0.0306585
502.516,0.0302497
502.616,0.0298487
502.716,0.0294554
502.816,0.0290696
502.916,0.028691
503.016,0.0283196
503.116,0.027955
503.216,0.0275973
503.316,0.0272462
503.416,0.0269015
503.516,0.0265631
503.616,0.0262309
503.716,0.0259047
503.816,0.0255844
503.916,0.0252698
504.016,0.0249608
504.116,0.0246573
504.216,0.0243591
504.316,0.0240662
504.416,0.0237784
504.516,0.0234956
504.616,0.0232176
504.716,0.0229445
504.816,0.022676
504.916,0.0224121
505.016,0.0221526
505.116,0.0218976
505.216,0.0216468
505.316,0.0214001
505.416,0.0211576
505.516,0.0209191
505.616,0.0206845
505.716,0.0204537
505.816,0.0202267
505.916,0.0200033
506.016,0.0197836
506.116,0.0195674
506.216,0.0193546
506.316,0.0191452
506.416,0.0189392
506.516,0.0187363
506.616,0.0185366
506.716,0.0183401
506.816,0.0181466
506.916,0.0179561
507.016,0.0177685
507.116,0.0175838
507.216,0.0174018
507.316,0.0172227
507.416,0.0170462
507.516,0.0168724
507.616,0.0167012
507.716,0.0165325
507.816,0.0163664
507.916,0.0162026
508.016,0.0160413
508.116,0.0158824
508.216,0.0157257
508.316,0.0155713
508.416,0.0154192
508.516,0.0152692
508.616,0.0151213
508.716,0.0149756
508.816,0.0148319
508.916,0.0146903
509.016,0.0145506
509.116,0.0144129
509.216,0.0142771
509.316,0.0141432
509.416,0.0140112
509.516,0.0138809
509.616,0.0137524
509.716,0.0136257
509.816,0.0135007
509.916,0.0133774
510.016,0.0132557
510.116,0.0131357
510.216,0.0130173
510.316,0.0129004
510.416,0.0127851
510.516,0.0126713
510.616,0.012559
510.716,0.0124482
510.816,0.0123388
510.916,0.0122308
511.016,0.0121242
511.116,0.012019
511.216,0.0119151
511.316,0.0118126
511.416,0.0117113
511.516,0.0116114
511.616,0.0115127
511.716,0.0114152
511.816,0.0113189
511.916,0.0112239
512.016,0.01113
512.116,0.0110373
512.216,0.0109457
512.316,0.0108553
512.416,0.0107659
512.516,0.0106776
512.616,0.0105905
512.716,0.0105043
512.816,0.0104192
512.916,0.0103351
513.016,0.010252
513.116,0.0101699
513.216,0.0100888
513.316,0.0100086
513.416,0.00992939
513.516,0.00985109
513.616,0.0097737
513.716,0.00969721
513.816,0.0096216
513.916,0.00954687
514.016,0.00947299
514.116,0.00939996
514.216,0.00932776
514.316,0.00925639
514.416,0.00918582
514.516,0.00911604
514.616,0.00904706
514.716,0.00897884
514.816,0.00891139
514.916,0.00884468
515.016,0.00877872
515.116,0.00871348
515.216,0.00864896
515.316,0.00858515
515.416,0.00852204
515.516,0.00845961
515.616,0.00839786
515.716,0.00833678
515.816,0.00827635
515.916,0.00821658
516.016,0.00815744
516.116,0.00809894
516.216,0.00804106
516.316,0.00798379
516.416,0.00792712
516.516,0.00787105
516.616,0.00781557
516.716,0.00776067
516.816,0.00770634
516.916,0.00765257
517.016,0.00759936
517.116,0.0075467
517.216,0.00749458
517.316,0.00744299
517.416,0.00739193
517.516,0.00734139
517.616,0.00729137
517.716,0.00724184
517.816,0.00719282
517.916,0.00714429
518.016,0.00709625
518.116,0.00704868
518.216,0.00700159
518.316,0.00695496
518.416,0.0069088
518.516,0.00686309
518.616,0.00681783
518.716,0.00677301
518.816,0.00672863
518.916,0.00668468
519.016,0.00664116
519.116,0.00659806
519.216,0.00655537
519.316,0.00651309
519.416,0.00647122
519.516,0.00642975
519.616,0.00638867
519.716,0.00634798
519.816,0.00630768
519.916,0.00626776
520.016,0.00622821
520.116,0.00618904
520.216,0.00615023
520.316,0.00611178
520.416,0.00607368
520.516,0.00603595
520.616,0.00599855
520.716,0.00596151
520.816,0.0059248
520.916,0.00588843
521.016,0.00585239
521.116,0.00581668
521.216,0.00578129
521.316,0.00574623
521.416,0.00571148
521.516,0.00567704
521.616,0.00564291
521.716,0.00560908
521.816,0.00557556
521.916,0.00554233
522.016,0.0055094
522.116,0.00547676
522.216,0.00544441
522.316,0.00541234
522.416,0.00538055
522.516,0.00534904
522.616,0.00531781
522.716,0.00528684
522.816,0.00525615
522.916,0.00522572
523.016,0.00519555
523.116,0.00516564
523.216,0.00513598
523.316,0.00510658
523.416,0.00507743
523.516,0.00504853
523.616,0.00501987
523.716,0.00499146
523.816,0.00496328
523.916,0.00493534
524.016,0.00490764
524.116,0.00488016
524.216,0.00485292
524.316,0.0048259
524.416,0.0047991
524.516,0.00477253
524.616,0.00474618
524.716,0.00472004
524.816,0.00469411
524.916,0.0046684
525.016,0.0046429
525.116,0.0046176
525.216,0.00459252
525.316,0.00456763
525.416,0.00454294
525.516,0.00451846
525.616,0.00449416
525.716,0.00447007
525.816,0.00444616
525.916,0.00442245
526.016,0.00439893
526.116,0.00437559
526.216,0.00435243
526.316,0.00432946
526.416,0.00430667
526.516,0.00428406
526.616,0.00426162
526.716,0.00423936
526.816,0.00421727
526.916,0.00419535
527.016,0.00417361
527.116,0.00415203
527.216,0.00413062
527.316,0.00410937
527.416,0.00408828
527.516,0.00406736
527.616,0.00404659
527.716,0.00402599
527.816,0.00400554
527.916,0.00398524
528.016,0.0039651
528.116,0.00394511
528.216,0.00392527
528.316,0.00390558
528.416,0.00388603
528.516,0.00386663
528.616,0.00384738
528.716,0.00382827
528.816,0.0038093
528.916,0.00379047
529.016,0.00377178
529.116,0.00375322
529.216,0.0037348
529.316,0.00371652
529.416,0.00369837
529.516,0.00368035
529.616,0.00366247
529.716,0.00364471
529.816,0.00362708
529.916,0.00360958
530.016,0.0035922
530.116,0.00357495
530.216,0.00355782
530.316,0.00354082
530.416,0.00352394
530.516,0.00350717
530.616,0.00349053
530.716,0.003474
530.816,0.00345759
530.916,0.00344129
531.016,0.00342511
531.116,0.00340904
531.216,0.00339309
531.316,0.00337725
531.416,0.00336151
531.516,0.00334589
531.616,0.00333037
531.716,0.00331497
531.816,0.00329966
531.916,0.00328447
532.016,0.00326937
532.116,0.00325439
532.216,0.0032395
532.316,0.00322472
532.416,0.00321003
532.516,0.00319545
532.616,0.00318096
532.716,0.00316657
532.816,0.00315228
532.916,0.00313809
533.016,0.00312399
533.116,0.00310999
533.216,0.00309607
533.316,0.00308226
533.416,0.00306853
533.516,0.0030549
533.616,0.00304135
533.716,0.0030279
533.816,0.00301453
533.916,0.00300125
534.016,0.00298806
534.116,0.00297496
534.216,0.00296194
534.316,0.00294901
534.416,0.00293616
534.516,0.00292339
534.616,0.00291071
534.716,0.00289811
534.816,0.00288559
534.916,0.00287315
535.016,0.00286079
535.116,0.00284851
535.216,0.00283631
535.316,0.00282419
535.416,0.00281214
535.516,0.00280017
535.616,0.00278828
535.716,0.00277646
535.816,0.00276472
535.916,0.00275305
536.016,0.00274146
536.116,0.00272994
536.216,0.00271849
536.316,0.00270711
536.416,0.0026958
536.516,0.00268457
536.616,0.0026734
536.716,0.0026623
536.816,0.00265127
536.916,0.00264031
537.016,0.00262942
537.116,0.00261859
537.216,0.00260784
537.316,0.00259714
537.416,0.00258652
537.516,0.00257595
537.616,0.00256545
537.716,0.00255502
537.816,0.00254465
537.916,0.00253434
538.016,0.0025241
538.116,0.00251391
538.216,0.00250379
538.316,0.00249373
538.416,0.00248373
538.516,0.00247378
538.616,0.0024639
538.716,0.00245408
538.816,0.00244431
538.916,0.00243461
539.016,0.00242496
539.116,0.00241537
539.216,0.00240583
539.316,0.00239635
539.416,0.00238693
539.516,0.00237756
539.616,0.00236825
539.716,0.00235899
539.816,0.00234978
539.916,0.00234063
540.016,0.00233154
540.116,0.00232249
540.216,0.0023135
540.316,0.00230456
540.416,0.00229567
540.516,0.00228683
540.616,0.00227804
540.716,0.00226931
540.816,0.00226062
540.916,0.00225198
541.016,0.0022434
541.116,0.00223486
541.216,0.00222637
541.316,0.00221793
541.416,0.00220953
541.516,0.00220119
541.616,0.00219289
541.716,0.00218463
541.816,0.00217643
541.916,0.00216827
542.016,0.00216015
542.116,0.00215208
542.216,0.00214406
542.316,0.00213608
542.416,0.00212815
542.516,0.00212025
542.616,0.00211241
542.716,0.0021046
542.816,0.00209684
542.916,0.00208912
543.016,0.00208145
543.116,0.00207381
543.216,0.00206622
543.316,0.00205867
543.416,0.00205116
543.516,0.0020437
543.616,0.00203627
543.716,0.00202888
543.816,0.00202153
543.916,0.00201423
544.016,0.00200696
544.116,0.00199973
544.216,0.00199254
544.316,0.00198539
544.416,0.00197828
544.516,0.0019712
544.616,0.00196416
544.716,0.00195716
544.816,0.0019502
544.916,0.00194328
545.016,0.00193639
545.116,0.00192954
545.216,0.00192272
545.316,0.00191594
545.416,0.0019092
545.516,0.00190249
545.616,0.00189582
545.716,0.00188918
545.816,0.00188257
545.916,0.00187601
546.016,0.00186947
546.116,0.00186297
546.216,0.0018565
546.316,0.00185007
546.416,0.00184367
546.516,0.0018373
546.616,0.00183097
546.716,0.00182467
546.816,0.0018184
546.916,0.00181216
547.016,0.00180596
547.116,0.00179978
547.216,0.00179364
547.316,0.00178753
547.416,0.00178145
547.516,0.0017754
547.616,0.00176939
547.716,0.0017634
547.816,0.00175744
547.916,0.00175151
548.016,0.00174562
548.116,0.00173975
548.216,0.00173391
548.316,0.0017281
548.416,0.00172233
548.516,0.00171657
548.616,0.00171085
548.716,0.00170516
548.816,0.00169949
548.916,0.00169386
549.016,0.00168825
549.116,0.00168267
549.216,0.00167711
549.316,0.00167159
549.416,0.00166609
549.516,0.00166062
549.616,0.00165517
549.716,0.00164975
549.816,0.00164436
549.916,0.001639
550.016,0.00163366
550.116,0.00162834
550.216,0.00162306
550.316,0.0016178
550.416,0.00161256
550.516,0.00160735
550.616,0.00160216
550.716,0.001597
550.816,0.00159187
550.916,0.00158675
551.016,0.00158167
551.116,0.00157661
551.216,0.00157157
551.316,0.00156655
551.416,0.00156156
551.516,0.0015566
551.616,0.00155165
551.716,0.00154674
551.816,0.00154184
551.916,0.00153697
552.016,0.00153212
552.116,0.00152729
552.216,0.00152249
552.316,0.0015177
552.416,0.00151295
552.516,0.00150821
552.616,0.00150349
552.716,0.0014988
552.816,0.00149413
552.916,0.00148948
553.016,0.00148486
553.116,0.00148025
553.216,0.00147567
553.316,0.0014711
553.416,0.00146656
553.516,0.00146204
553.616,0.00145754
553.716,0.00145306
553.816,0.0014486
553.916,0.00144416
554.016,0.00143974
554.116,0.00143535
554.216,0.00143097
554.316,0.00142661
554.416,0.00142227
554.516,0.00141795
554.616,0.00141366
554.716,0.00140938
554.816,0.00140512
554.916,0.00140088
555.016,0.00139665
555.116,0.00139245
555.216,0.00138827
555.316,0.0013841
555.416,0.00137996
555.516,0.00137583
555.616,0.00137172
555.716,0.00136763
555.816,0.00136356
555.916,0.0013595
556.016,0.00135547
556.116,0.00135145
556.216,0.00134745
556.316,0.00134347
556.416,0.0013395
556.516,0.00133555
556.616,0.00133162
556.716,0.00132771
556.816,0.00132382
556.916,0.00131994
557.016,0.00131608
557.116,0.00131223
557.216,0.0013084
557.316,0.00130459
557.416,0.0013008
557.516,0.00129702
557.616,0.00129326
557.716,0.00128951
557.816,0.00128578
557.916,0.00128207
558.016,0.00127837
558.116,0.00127469
558.216,0.00127103
558.316,0.00126738
558.416,0.00126374
558.516,0.00126012
558.616,0.00125652
558.716,0.00125293
558.816,0.00124936
558.916,0.00124581
559.016,0.00124226
559.116,0.00123874
559.216,0.00123523
559.316,0.00123173
559.416,0.00122825
559.516,0.00122478
559.616,0.00122133
559.716,0.00121789
559.816,0.00121447
559.916,0.00121106
560.016,0.00120766
560.116,0.00120428
560.216,0.00120092
560.316,0.00119756
560.416,0.00119423
560.516,0.0011909
560.616,0.00118759
560.716,0.00118429
560.816,0.00118101
560.916,0.00117774
561.016,0.00117449
561.116,0.00117124
561.216,0.00116802
561.316,0.0011648
561.416,0.0011616
561.516,0.00115841
561.616,0.00115523
561.716,0.00115207
561.816,0.00114892
561.916,0.00114578
562.016,0.00114266
562.116,0.00113954
562.216,0.00113645
562.316,0.00113336
562.416,0.00113029
562.516,0.00112722
562.616,0.00112418
562.716,0.00112114
562.816,0.00111811
562.916,0.0011151
563.016,0.0011121
563.116,0.00110911
563.216,0.00110614
563.316,0.00110317
563.416,0.00110022
563.516,0.00109728
563.616,0.00109435
563.716,0.00109144
563.816,0.00108853
563.916,0.00108564
564.016,0.00108276
564.116,0.00107988
564.216,0.00107703
564.316,0.00107418
564.416,0.00107134
564.516,0.00106851
564.616,0.0010657
564.716,0.0010629
564.816,0.00106011
564.916,0.00105732
565.016,0.00105455
565.116,0.00105179
565.216,0.00104905
565.316,0.00104631
565.416,0.00104358
565.516,0.00104086
565.616,0.00103816
565.716,0.00103546
565.816,0.00103278
565.916,0.0010301
566.016,0.00102744
566.116,0.00102478
566.216,0.00102214
566.316,0.00101951
566.416,0.00101688
566.516,0.00101427
566.616,0.00101167
566.716,0.00100907
566.816,0.00100649
566.916,0.00100392
567.016,0.00100135
567.116,0.000998801
567.216,0.000996257
567.316,0.000993723
567.416,0.000991198
567.516,0.000988683
567.616,0.000986178
567.716,0.000983682
567.816,0.000981196
567.916,0.000978719
568.016,0.000976251
568.116,0.000973793
568.216,0.000971343
568.316,0.000968904
568.416,0.000966473
568.516,0.000964051
568.616,0.000961639
568.716,0.000959235
568.816,0.000956841
568.916,0.000954455
569.016,0.000952079
569.116,0.000949711
569.216,0.000947352
569.316,0.000945002
569.416,0.00094266
569.516,0.000940327
569.616,0.000938003
569.716,0.000935688