File: inn/kurimoto_2004/as_grown/raman/curve_total_fit.dat
422.016,0.10231
422.116,0.102355
422.216,0.102401
422.316,0.102449
422.416,0.102499
422.516,0.10255
422.616,0.102603
422.716,0.102658
422.816,0.102715
422.916,0.102774
423.016,0.102835
423.116,0.102898
423.216,0.102963
423.316,0.10303
423.416,0.1031
423.516,0.103172
423.616,0.103246
423.716,0.103323
423.816,0.103402
423.916,0.103484
424.016,0.103569
424.116,0.103656
424.216,0.103746
424.316,0.103838
424.416,0.103934
424.516,0.104032
424.616,0.104134
424.716,0.104238
424.816,0.104346
424.916,0.104457
425.016,0.10457
425.116,0.104688
425.216,0.104808
425.316,0.104932
425.416,0.10506
425.516,0.105191
425.616,0.105325
425.716,0.105463
425.816,0.105605
425.916,0.105751
426.016,0.1059
426.116,0.106053
426.216,0.10621
426.316,0.106371
426.416,0.106536
426.516,0.106705
426.616,0.106878
426.716,0.107055
426.816,0.107236
426.916,0.107421
427.016,0.107611
427.116,0.107805
427.216,0.108003
427.316,0.108205
427.416,0.108412
427.516,0.108623
427.616,0.108838
427.716,0.109058
427.816,0.109282
427.916,0.10951
428.016,0.109743
428.116,0.10998
428.216,0.110221
428.316,0.110467
428.416,0.110717
428.516,0.110972
428.616,0.11123
428.716,0.111494
428.816,0.111761
428.916,0.112032
429.016,0.112308
429.116,0.112588
429.216,0.112872
429.316,0.11316
429.416,0.113451
429.516,0.113747
429.616,0.114047
429.716,0.11435
429.816,0.114658
429.916,0.114968
430.016,0.115283
430.116,0.1156
430.216,0.115922
430.316,0.116246
430.416,0.116573
430.516,0.116904
430.616,0.117237
430.716,0.117574
430.816,0.117913
430.916,0.118254
431.016,0.118598
431.116,0.118944
431.216,0.119292
431.316,0.119643
431.416,0.119995
431.516,0.120348
431.616,0.120704
431.716,0.12106
431.816,0.121418
431.916,0.121777
432.016,0.122136
432.116,0.122496
432.216,0.122857
432.316,0.123218
432.416,0.123578
432.516,0.123939
432.616,0.124299
432.716,0.124659
432.816,0.125018
432.916,0.125376
433.016,0.125733
433.116,0.126089
433.216,0.126442
433.316,0.126794
433.416,0.127144
433.516,0.127492
433.616,0.127837
433.716,0.12818
433.816,0.128519
433.916,0.128856
434.016,0.129189
434.116,0.129518
434.216,0.129844
434.316,0.130165
434.416,0.130482
434.516,0.130795
434.616,0.131103
434.716,0.131406
434.816,0.131704
434.916,0.131997
435.016,0.132284
435.116,0.132565
435.216,0.13284
435.316,0.13311
435.416,0.133372
435.516,0.133628
435.616,0.133878
435.716,0.13412
435.816,0.134356
435.916,0.134584
436.016,0.134804
436.116,0.135017
436.216,0.135222
436.316,0.135419
436.416,0.135608
436.516,0.135789
436.616,0.135961
436.716,0.136125
436.816,0.13628
436.916,0.136426
437.016,0.136564
437.116,0.136692
437.216,0.136812
437.316,0.136922
437.416,0.137023
437.516,0.137114
437.616,0.137196
437.716,0.137269
437.816,0.137332
437.916,0.137386
438.016,0.13743
438.116,0.137464
438.216,0.137489
438.316,0.137504
438.416,0.137509
438.516,0.137501
438.616,0.137482
438.716,0.137451
438.816,0.137408
438.916,0.137353
439.016,0.137287
439.116,0.137209
439.216,0.137119
439.316,0.137019
439.416,0.136907
439.516,0.136783
439.616,0.136649
439.716,0.136504
439.816,0.136348
439.916,0.136182
440.016,0.136005
440.116,0.135818
440.216,0.135621
440.316,0.135414
440.416,0.135198
440.516,0.134972
440.616,0.134737
440.716,0.134494
440.816,0.134242
440.916,0.133981
441.016,0.133712
441.116,0.133435
441.216,0.133151
441.316,0.132859
441.416,0.132561
441.516,0.132255
441.616,0.131944
441.716,0.131626
441.816,0.131302
441.916,0.130972
442.016,0.130638
442.116,0.130298
442.216,0.129953
442.316,0.129605
442.416,0.129252
442.516,0.128895
442.616,0.128535
442.716,0.128172
442.816,0.127806
442.916,0.127438
443.016,0.127067
443.116,0.126694
443.216,0.12632
443.316,0.125944
443.416,0.125567
443.516,0.125189
443.616,0.124811
443.716,0.124433
443.816,0.124055
443.916,0.123677
444.016,0.123299
444.116,0.122922
444.216,0.122547
444.316,0.122173
444.416,0.1218
444.516,0.121429
444.616,0.12106
444.716,0.120694
444.816,0.120329
444.916,0.119968
445.016,0.119609
445.116,0.119253
445.216,0.118901
445.316,0.118552
445.416,0.118207
445.516,0.117865
445.616,0.117527
445.716,0.117193
445.816,0.116864
445.916,0.116538
446.016,0.116217
446.116,0.115901
446.216,0.115589
446.316,0.115282
446.416,0.11498
446.516,0.114683
446.616,0.114391
446.716,0.114104
446.816,0.113822
446.916,0.113546
447.016,0.113274
447.116,0.113008
447.216,0.112747
447.316,0.112492
447.416,0.112242
447.516,0.111998
447.616,0.111758
447.716,0.111525
447.816,0.111297
447.916,0.111074
448.016,0.110857
448.116,0.110645
448.216,0.110439
448.316,0.110238
448.416,0.110042
448.516,0.109852
448.616,0.109667
448.716,0.109487
448.816,0.109312
448.916,0.109143
449.016,0.108979
449.116,0.10882
449.216,0.108666
449.316,0.108516
449.416,0.108372
449.516,0.108233
449.616,0.108098
449.716,0.107968
449.816,0.107843
449.916,0.107722
450.016,0.107605
450.116,0.107494
450.216,0.107386
450.316,0.107283
450.416,0.107183
450.516,0.107088
450.616,0.106997
450.716,0.10691
450.816,0.106827
450.916,0.106747
451.016,0.106672
451.116,0.1066
451.216,0.106531
451.316,0.106466
451.416,0.106404
451.516,0.106345
451.616,0.10629
451.716,0.106238
451.816,0.106189
451.916,0.106143
452.016,0.1061
452.116,0.106059
452.216,0.106022
452.316,0.105987
452.416,0.105954
452.516,0.105924
452.616,0.105897
452.716,0.105872
452.816,0.105849
452.916,0.105829
453.016,0.105811
453.116,0.105795
453.216,0.105781
453.316,0.105769
453.416,0.105759
453.516,0.105751
453.616,0.105744
453.716,0.10574
453.816,0.105737
453.916,0.105736
454.016,0.105736
454.116,0.105739
454.216,0.105742
454.316,0.105747
454.416,0.105754
454.516,0.105762
454.616,0.105771
454.716,0.105781
454.816,0.105793
454.916,0.105806
455.016,0.10582
455.116,0.105836
455.216,0.105852
455.316,0.10587
455.416,0.105888
455.516,0.105908
455.616,0.105928
455.716,0.10595
455.816,0.105972
455.916,0.105996
456.016,0.10602
456.116,0.106045
456.216,0.106071
456.316,0.106098
456.416,0.106126
456.516,0.106154
456.616,0.106183
456.716,0.106213
456.816,0.106244
456.916,0.106275
457.016,0.106307
457.116,0.10634
457.216,0.106373
457.316,0.106407
457.416,0.106442
457.516,0.106477
457.616,0.106513
457.716,0.10655
457.816,0.106587
457.916,0.106625
458.016,0.106663
458.116,0.106702
458.216,0.106742
458.316,0.106782
458.416,0.106823
458.516,0.106864
458.616,0.106906
458.716,0.106948
458.816,0.106991
458.916,0.107035
459.016,0.107079
459.116,0.107124
459.216,0.107169
459.316,0.107215
459.416,0.107261
459.516,0.107308
459.616,0.107355
459.716,0.107403
459.816,0.107452
459.916,0.107501
460.016,0.107551
460.116,0.107601
460.216,0.107652
460.316,0.107703
460.416,0.107755
460.516,0.107808
460.616,0.107861
460.716,0.107915
460.816,0.107969
460.916,0.108024
461.016,0.10808
461.116,0.108136
461.216,0.108193
461.316,0.10825
461.416,0.108308
461.516,0.108367
461.616,0.108426
461.716,0.108486
461.816,0.108547
461.916,0.108608
462.016,0.10867
462.116,0.108733
462.216,0.108796
462.316,0.10886
462.416,0.108925
462.516,0.108991
462.616,0.109057
462.716,0.109124
462.816,0.109192
462.916,0.10926
463.016,0.109329
463.116,0.109399
463.216,0.10947
463.316,0.109542
463.416,0.109614
463.516,0.109688
463.616,0.109762
463.716,0.109837
463.816,0.109913
463.916,0.109989
464.016,0.110067
464.116,0.110145
464.216,0.110225
464.316,0.110305
464.416,0.110386
464.516,0.110469
464.616,0.110552
464.716,0.110636
464.816,0.110721
464.916,0.110808
465.016,0.110895
465.116,0.110983
465.216,0.111073
465.316,0.111163
465.416,0.111255
465.516,0.111347
465.616,0.111441
465.716,0.111536
465.816,0.111632
465.916,0.11173
466.016,0.111828
466.116,0.111928
466.216,0.112029
466.316,0.112131
466.416,0.112235
466.516,0.11234
466.616,0.112446
466.716,0.112554
466.816,0.112663
466.916,0.112773
467.016,0.112885
467.116,0.112998
467.216,0.113113
467.316,0.11323
467.416,0.113347
467.516,0.113467
467.616,0.113588
467.716,0.11371
467.816,0.113834
467.916,0.11396
468.016,0.114088
468.116,0.114217
468.216,0.114348
468.316,0.114481
468.416,0.114616
468.516,0.114752
468.616,0.114891
468.716,0.115031
468.816,0.115174
468.916,0.115318
469.016,0.115464
469.116,0.115613
469.216,0.115763
469.316,0.115916
469.416,0.116071
469.516,0.116228
469.616,0.116387
469.716,0.116549
469.816,0.116713
469.916,0.11688
470.016,0.117049
470.116,0.11722
470.216,0.117394
470.316,0.117571
470.416,0.11775
470.516,0.117932
470.616,0.118116
470.716,0.118304
470.816,0.118494
470.916,0.118688
471.016,0.118884
471.116,0.119083
471.216,0.119286
471.316,0.119491
471.416,0.1197
471.516,0.119912
471.616,0.120127
471.716,0.120346
471.816,0.120569
471.916,0.120795
472.016,0.121024
472.116,0.121258
472.216,0.121495
472.316,0.121736
472.416,0.121981
472.516,0.12223
472.616,0.122484
472.716,0.122741
472.816,0.123003
472.916,0.123269
473.016,0.12354
473.116,0.123816
473.216,0.124096
473.316,0.124381
473.416,0.124671
473.516,0.124966
473.616,0.125266
473.716,0.125572
473.816,0.125883
473.916,0.126199
474.016,0.126521
474.116,0.126849
474.216,0.127183
474.316,0.127523
474.416,0.127869
474.516,0.128221
474.616,0.12858
474.716,0.128946
474.816,0.129318
474.916,0.129698
475.016,0.130084
475.116,0.130478
475.216,0.13088
475.316,0.131289
475.416,0.131706
475.516,0.132131
475.616,0.132564
475.716,0.133006
475.816,0.133456
475.916,0.133916
476.016,0.134385
476.116,0.134863
476.216,0.13535
476.316,0.135848
476.416,0.136355
476.516,0.136873
476.616,0.137402
476.716,0.137941
476.816,0.138492
476.916,0.139055
477.016,0.139629
477.116,0.140215
477.216,0.140814
477.316,0.141425
477.416,0.14205
477.516,0.142688
477.616,0.14334
477.716,0.144007
477.816,0.144688
477.916,0.145384
478.016,0.146095
478.116,0.146823
478.216,0.147566
478.316,0.148327
478.416,0.149105
478.516,0.1499
478.616,0.150714
478.716,0.151547
478.816,0.152398
478.916,0.15327
479.016,0.154163
479.116,0.155076
479.216,0.156011
479.316,0.156968
479.416,0.157948
479.516,0.158952
479.616,0.15998
479.716,0.161033
479.816,0.162111
479.916,0.163216
480.016,0.164349
480.116,0.165509
480.216,0.166699
480.316,0.167918
480.416,0.169168
480.516,0.170449
480.616,0.171763
480.716,0.17311
480.816,0.174491
480.916,0.175908
481.016,0.177362
481.116,0.178853
481.216,0.180383
481.316,0.181952
481.416,0.183563
481.516,0.185215
481.616,0.186911
481.716,0.188652
481.816,0.190438
481.916,0.192272
482.016,0.194154
482.116,0.196086
482.216,0.19807
482.316,0.200106
482.416,0.202196
482.516,0.204341
482.616,0.206544
482.716,0.208805
482.816,0.211126
482.916,0.213509
483.016,0.215954
483.116,0.218463
483.216,0.221039
483.316,0.223681
483.416,0.226393
483.516,0.229174
483.616,0.232027
483.716,0.234952
483.816,0.237951
483.916,0.241025
484.016,0.244175
484.116,0.247402
484.216,0.250706
484.316,0.254088
484.416,0.25755
484.516,0.26109
484.616,0.264709
484.716,0.268407
484.816,0.272183
484.916,0.276037
485.016,0.279967
485.116,0.283973
485.216,0.288051
485.316,0.2922
485.416,0.296417
485.516,0.300699
485.616,0.305043
485.716,0.309442
485.816,0.313894
485.916,0.318391
486.016,0.322928
486.116,0.327498
486.216,0.332093
486.316,0.336704
486.416,0.341322
486.516,0.345937
486.616,0.350538
486.716,0.355114
486.816,0.359652
486.916,0.364138
487.016,0.36856
487.116,0.372901
487.216,0.377149
487.316,0.381286
487.416,0.385297
487.516,0.389166
487.616,0.392876
487.716,0.396411
487.816,0.399756
487.916,0.402893
488.016,0.405807
488.116,0.408484
488.216,0.41091
488.316,0.413071
488.416,0.414956
488.516,0.416555
488.616,0.417858
488.716,0.418857
488.816,0.419547
488.916,0.419924
489.016,0.419984
489.116,0.419715
489.216,0.419113
489.316,0.418181
489.416,0.416926
489.516,0.415356
489.616,0.413479
489.716,0.411307
489.816,0.408853
489.916,0.406131
490.016,0.403155
490.116,0.399942
490.216,0.396509
490.316,0.392872
490.416,0.389051
490.516,0.385061
490.616,0.380923
490.716,0.376652
490.816,0.372266
490.916,0.367783
491.016,0.363218
491.116,0.358587
491.216,0.353905
491.316,0.349187
491.416,0.344445
491.516,0.339693
491.616,0.334941
491.716,0.3302
491.816,0.32548
491.916,0.320791
492.016,0.31614
492.116,0.311534
492.216,0.30698
492.316,0.302484
492.416,0.298051
492.516,0.293685
492.616,0.289391
492.716,0.28517
492.816,0.281026
492.916,0.276961
493.016,0.272976
493.116,0.269074
493.216,0.265254
493.316,0.261518
493.416,0.257866
493.516,0.254297
493.616,0.250811
493.716,0.247409
493.816,0.244089
493.916,0.24085
494.016,0.237691
494.116,0.234612
494.216,0.23161
494.316,0.228686
494.416,0.225837
494.516,0.223062
494.616,0.220359
494.716,0.217727
494.816,0.215164
494.916,0.212669
495.016,0.21024
495.116,0.207875
495.216,0.205573
495.316,0.203333
495.416,0.201152
495.516,0.199029
495.616,0.196963
495.716,0.194952
495.816,0.192994
495.916,0.191088
496.016,0.189233
496.116,0.187426
496.216,0.185668
496.316,0.183956
496.416,0.182288
496.516,0.180664
496.616,0.179083
496.716,0.177543
496.816,0.176043
496.916,0.174581
497.016,0.173157
497.116,0.17177
497.216,0.170418
497.316,0.1691
497.416,0.167816
497.516,0.166564
497.616,0.165344
497.716,0.164154
497.816,0.162994
497.916,0.161862
498.016,0.160758
498.116,0.159681
498.216,0.158631
498.316,0.157606
498.416,0.156606
498.516,0.15563
498.616,0.154677
498.716,0.153746
498.816,0.152838
498.916,0.151951
499.016,0.151085
499.116,0.150239
499.216,0.149413
499.316,0.148605
499.416,0.147816
499.516,0.147045
499.616,0.146292
499.716,0.145555
499.816,0.144835
499.916,0.144131
500.016,0.143443
500.116,0.14277
500.216,0.142111
500.316,0.141467
500.416,0.140837
500.516,0.14022
500.616,0.139617
500.716,0.139026
500.816,0.138448
500.916,0.137882
501.016,0.137328
501.116,0.136786
501.216,0.136255
501.316,0.135734
501.416,0.135225
501.516,0.134726
501.616,0.134237
501.716,0.133757
501.816,0.133288
501.916,0.132827
502.016,0.132376
502.116,0.131934
502.216,0.131501
502.316,0.131075
502.416,0.130659
502.516,0.13025
502.616,0.129849
502.716,0.129455
502.816,0.12907
502.916,0.128691
503.016,0.12832
503.116,0.127955
503.216,0.127597
503.316,0.127246
503.416,0.126901
503.516,0.126563
503.616,0.126231
503.716,0.125905
503.816,0.125584
503.916,0.12527
504.016,0.124961
504.116,0.124657
504.216,0.124359
504.316,0.124066
504.416,0.123778
504.516,0.123496
504.616,0.123218
504.716,0.122944
504.816,0.122676
504.916,0.122412
505.016,0.122153
505.116,0.121898
505.216,0.121647
505.316,0.1214
505.416,0.121158
505.516,0.120919
505.616,0.120684
505.716,0.120454
505.816,0.120227
505.916,0.120003
506.016,0.119784
506.116,0.119567
506.216,0.119355
506.316,0.119145
506.416,0.118939
506.516,0.118736
506.616,0.118537
506.716,0.11834
506.816,0.118147
506.916,0.117956
507.016,0.117768
507.116,0.117584
507.216,0.117402
507.316,0.117223
507.416,0.117046
507.516,0.116872
507.616,0.116701
507.716,0.116533
507.816,0.116366
507.916,0.116203
508.016,0.116041
508.116,0.115882
508.216,0.115726
508.316,0.115571
508.416,0.115419
508.516,0.115269
508.616,0.115121
508.716,0.114976
508.816,0.114832
508.916,0.11469
509.016,0.114551
509.116,0.114413
509.216,0.114277
509.316,0.114143
509.416,0.114011
509.516,0.113881
509.616,0.113752
509.716,0.113626
509.816,0.113501
509.916,0.113377
510.016,0.113256
510.116,0.113136
510.216,0.113017
510.316,0.1129
510.416,0.112785
510.516,0.112671
510.616,0.112559
510.716,0.112448
510.816,0.112339
510.916,0.112231
511.016,0.112124
511.116,0.112019
511.216,0.111915
511.316,0.111813
511.416,0.111711
511.516,0.111611
511.616,0.111513
511.716,0.111415
511.816,0.111319
511.916,0.111224
512.016,0.11113
512.116,0.111037
512.216,0.110946
512.316,0.110855
512.416,0.110766
512.516,0.110678
512.616,0.11059
512.716,0.110504
512.816,0.110419
512.916,0.110335
513.016,0.110252
513.116,0.11017
513.216,0.110089
513.316,0.110009
513.416,0.109929
513.516,0.109851
513.616,0.109774
513.716,0.109697
513.816,0.109622
513.916,0.109547
514.016,0.109473
514.116,0.1094
514.216,0.109328
514.316,0.109256
514.416,0.109186
514.516,0.109116
514.616,0.109047
514.716,0.108979
514.816,0.108911
514.916,0.108845
515.016,0.108779
515.116,0.108713
515.216,0.108649
515.316,0.108585
515.416,0.108522
515.516,0.10846
515.616,0.108398
515.716,0.108337
515.816,0.108276
515.916,0.108217
516.016,0.108157
516.116,0.108099
516.216,0.108041
516.316,0.107984
516.416,0.107927
516.516,0.107871
516.616,0.107816
516.716,0.107761
516.816,0.107706
516.916,0.107653
517.016,0.107599
517.116,0.107547
517.216,0.107495
517.316,0.107443
517.416,0.107392
517.516,0.107341
517.616,0.107291
517.716,0.107242
517.816,0.107193
517.916,0.107144
518.016,0.107096
518.116,0.107049
518.216,0.107002
518.316,0.106955
518.416,0.106909
518.516,0.106863
518.616,0.106818
518.716,0.106773
518.816,0.106729
518.916,0.106685
519.016,0.106641
519.116,0.106598
519.216,0.106555
519.316,0.106513
519.416,0.106471
519.516,0.10643
519.616,0.106389
519.716,0.106348
519.816,0.106308
519.916,0.106268
520.016,0.106228
520.116,0.106189
520.216,0.10615
520.316,0.106112
520.416,0.106074
520.516,0.106036
520.616,0.105999
520.716,0.105962
520.816,0.105925
520.916,0.105888
521.016,0.105852
521.116,0.105817
521.216,0.105781
521.316,0.105746
521.416,0.105711
521.516,0.105677
521.616,0.105643
521.716,0.105609
521.816,0.105576
521.916,0.105542
522.016,0.105509
522.116,0.105477
522.216,0.105444
522.316,0.105412
522.416,0.105381
522.516,0.105349
522.616,0.105318
522.716,0.105287
522.816,0.105256
522.916,0.105226
523.016,0.105196
523.116,0.105166
523.216,0.105136
523.316,0.105107
523.416,0.105077
523.516,0.105049
523.616,0.10502
523.716,0.104991
523.816,0.104963
523.916,0.104935
524.016,0.104908
524.116,0.10488
524.216,0.104853
524.316,0.104826
524.416,0.104799
524.516,0.104773
524.616,0.104746
524.716,0.10472
524.816,0.104694
524.916,0.104668
525.016,0.104643
525.116,0.104618
525.216,0.104593
525.316,0.104568
525.416,0.104543
525.516,0.104518
525.616,0.104494
525.716,0.10447
525.816,0.104446
525.916,0.104422
526.016,0.104399
526.116,0.104376
526.216,0.104352
526.316,0.104329
526.416,0.104307
526.516,0.104284
526.616,0.104262
526.716,0.104239
526.816,0.104217
526.916,0.104195
527.016,0.104174
527.116,0.104152
527.216,0.104131
527.316,0.104109
527.416,0.104088
527.516,0.104067
527.616,0.104047
527.716,0.104026
527.816,0.104006
527.916,0.103985
528.016,0.103965
528.116,0.103945
528.216,0.103925
528.316,0.103906
528.416,0.103886
528.516,0.103867
528.616,0.103847
528.716,0.103828
528.816,0.103809
528.916,0.10379
529.016,0.103772
529.116,0.103753
529.216,0.103735
529.316,0.103717
529.416,0.103698
529.516,0.10368
529.616,0.103662
529.716,0.103645
529.816,0.103627
529.916,0.10361
530.016,0.103592
530.116,0.103575
530.216,0.103558
530.316,0.103541
530.416,0.103524
530.516,0.103507
530.616,0.103491
530.716,0.103474
530.816,0.103458
530.916,0.103441
531.016,0.103425
531.116,0.103409
531.216,0.103393
531.316,0.103377
531.416,0.103362
531.516,0.103346
531.616,0.10333
531.716,0.103315
531.816,0.1033
531.916,0.103284
532.016,0.103269
532.116,0.103254
532.216,0.103239
532.316,0.103225
532.416,0.10321
532.516,0.103195
532.616,0.103181
532.716,0.103167
532.816,0.103152
532.916,0.103138
533.016,0.103124
533.116,0.10311
533.216,0.103096
533.316,0.103082
533.416,0.103069
533.516,0.103055
533.616,0.103041
533.716,0.103028
533.816,0.103015
533.916,0.103001
534.016,0.102988
534.116,0.102975
534.216,0.102962
534.316,0.102949
534.416,0.102936
534.516,0.102923
534.616,0.102911
534.716,0.102898
534.816,0.102886
534.916,0.102873
535.016,0.102861
535.116,0.102849
535.216,0.102836
535.316,0.102824
535.416,0.102812
535.516,0.1028
535.616,0.102788
535.716,0.102776
535.816,0.102765
535.916,0.102753
536.016,0.102741
536.116,0.10273
536.216,0.102718
536.316,0.102707
536.416,0.102696
536.516,0.102685
536.616,0.102673
536.716,0.102662
536.816,0.102651
536.916,0.10264
537.016,0.102629
537.116,0.102619
537.216,0.102608
537.316,0.102597
537.416,0.102587
537.516,0.102576
537.616,0.102565
537.716,0.102555
537.816,0.102545
537.916,0.102534
538.016,0.102524
538.116,0.102514
538.216,0.102504
538.316,0.102494
538.416,0.102484
538.516,0.102474
538.616,0.102464
538.716,0.102454
538.816,0.102444
538.916,0.102435
539.016,0.102425
539.116,0.102415
539.216,0.102406
539.316,0.102396
539.416,0.102387
539.516,0.102378
539.616,0.102368
539.716,0.102359
539.816,0.10235
539.916,0.102341
540.016,0.102332
540.116,0.102322
540.216,0.102313
540.316,0.102305
540.416,0.102296
540.516,0.102287
540.616,0.102278
540.716,0.102269
540.816,0.102261
540.916,0.102252
541.016,0.102243
541.116,0.102235
541.216,0.102226
541.316,0.102218
541.416,0.10221
541.516,0.102201
541.616,0.102193
541.716,0.102185
541.816,0.102176
541.916,0.102168
542.016,0.10216
542.116,0.102152
542.216,0.102144
542.316,0.102136
542.416,0.102128
542.516,0.10212
542.616,0.102112
542.716,0.102105
542.816,0.102097
542.916,0.102089
543.016,0.102081
543.116,0.102074
543.216,0.102066
543.316,0.102059
543.416,0.102051
543.516,0.102044
543.616,0.102036
543.716,0.102029
543.816,0.102022
543.916,0.102014
544.016,0.102007
544.116,0.102
544.216,0.101993
544.316,0.101985
544.416,0.101978
544.516,0.101971
544.616,0.101964
544.716,0.101957
544.816,0.10195
544.916,0.101943
545.016,0.101936
545.116,0.10193
545.216,0.101923
545.316,0.101916
545.416,0.101909
545.516,0.101902
545.616,0.101896
545.716,0.101889
545.816,0.101883
545.916,0.101876
546.016,0.101869
546.116,0.101863
546.216,0.101857
546.316,0.10185
546.416,0.101844
546.516,0.101837
546.616,0.101831
546.716,0.101825
546.816,0.101818
546.916,0.101812
547.016,0.101806
547.116,0.1018
547.216,0.101794
547.316,0.101788
547.416,0.101781
547.516,0.101775
547.616,0.101769
547.716,0.101763
547.816,0.101757
547.916,0.101752
548.016,0.101746
548.116,0.10174
548.216,0.101734
548.316,0.101728
548.416,0.101722
548.516,0.101717
548.616,0.101711
548.716,0.101705
548.816,0.101699
548.916,0.101694
549.016,0.101688
549.116,0.101683
549.216,0.101677
549.316,0.101672
549.416,0.101666
549.516,0.101661
549.616,0.101655
549.716,0.10165
549.816,0.101644
549.916,0.101639
550.016,0.101634
550.116,0.101628
550.216,0.101623
550.316,0.101618
550.416,0.101613
550.516,0.101607
550.616,0.101602
550.716,0.101597
550.816,0.101592
550.916,0.101587
551.016,0.101582
551.116,0.101577
551.216,0.101572
551.316,0.101567
551.416,0.101562
551.516,0.101557
551.616,0.101552
551.716,0.101547
551.816,0.101542
551.916,0.101537
552.016,0.101532
552.116,0.101527
552.216,0.101522
552.316,0.101518
552.416,0.101513
552.516,0.101508
552.616,0.101503
552.716,0.101499
552.816,0.101494
552.916,0.101489
553.016,0.101485
553.116,0.10148
553.216,0.101476
553.316,0.101471
553.416,0.101467
553.516,0.101462
553.616,0.101458
553.716,0.101453
553.816,0.101449
553.916,0.101444
554.016,0.10144
554.116,0.101435
554.216,0.101431
554.316,0.101427
554.416,0.101422
554.516,0.101418
554.616,0.101414
554.716,0.101409
554.816,0.101405
554.916,0.101401
555.016,0.101397
555.116,0.101392
555.216,0.101388
555.316,0.101384
555.416,0.10138
555.516,0.101376
555.616,0.101372
555.716,0.101368
555.816,0.101364
555.916,0.10136
556.016,0.101355
556.116,0.101351
556.216,0.101347
556.316,0.101343
556.416,0.10134
556.516,0.101336
556.616,0.101332
556.716,0.101328
556.816,0.101324
556.916,0.10132
557.016,0.101316
557.116,0.101312
557.216,0.101308
557.316,0.101305
557.416,0.101301
557.516,0.101297
557.616,0.101293
557.716,0.10129
557.816,0.101286
557.916,0.101282
558.016,0.101278
558.116,0.101275
558.216,0.101271
558.316,0.101267
558.416,0.101264
558.516,0.10126
558.616,0.101257
558.716,0.101253
558.816,0.101249
558.916,0.101246
559.016,0.101242
559.116,0.101239
559.216,0.101235
559.316,0.101232
559.416,0.101228
559.516,0.101225
559.616,0.101221
559.716,0.101218
559.816,0.101214
559.916,0.101211
560.016,0.101208
560.116,0.101204
560.216,0.101201
560.316,0.101198
560.416,0.101194
560.516,0.101191
560.616,0.101188
560.716,0.101184
560.816,0.101181
560.916,0.101178
561.016,0.101174
561.116,0.101171
561.216,0.101168
561.316,0.101165
561.416,0.101162
561.516,0.101158
561.616,0.101155
561.716,0.101152
561.816,0.101149
561.916,0.101146
562.016,0.101143
562.116,0.10114
562.216,0.101136
562.316,0.101133
562.416,0.10113
562.516,0.101127
562.616,0.101124
562.716,0.101121
562.816,0.101118
562.916,0.101115
563.016,0.101112
563.116,0.101109
563.216,0.101106
563.316,0.101103
563.416,0.1011
563.516,0.101097
563.616,0.101094
563.716,0.101091
563.816,0.101089
563.916,0.101086
564.016,0.101083
564.116,0.10108
564.216,0.101077
564.316,0.101074
564.416,0.101071
564.516,0.101069
564.616,0.101066
564.716,0.101063
564.816,0.10106
564.916,0.101057
565.016,0.101055
565.116,0.101052
565.216,0.101049
565.316,0.101046
565.416,0.101044
565.516,0.101041
565.616,0.101038
565.716,0.101035
565.816,0.101033
565.916,0.10103
566.016,0.101027
566.116,0.101025
566.216,0.101022
566.316,0.10102
566.416,0.101017
566.516,0.101014
566.616,0.101012
566.716,0.101009
566.816,0.101006
566.916,0.101004
567.016,0.101001
567.116,0.100999
567.216,0.100996
567.316,0.100994
567.416,0.100991
567.516,0.100989
567.616,0.100986
567.716,0.100984
567.816,0.100981
567.916,0.100979
568.016,0.100976
568.116,0.100974
568.216,0.100971
568.316,0.100969
568.416,0.100966
568.516,0.100964
568.616,0.100962
568.716,0.100959
568.816,0.100957
568.916,0.100954
569.016,0.100952
569.116,0.10095
569.216,0.100947
569.316,0.100945
569.416,0.100943
569.516,0.10094
569.616,0.100938
569.716,0.100936