File: inn/kurimoto_2004/500C/raman/curve_1_fit.dat
392.948,0.0102214
393.048,0.0103041
393.148,0.0103879
393.248,0.0104727
393.348,0.0105585
393.448,0.0106453
393.548,0.0107333
393.648,0.0108223
393.748,0.0109124
393.848,0.0110037
393.948,0.0110961
394.048,0.0111897
394.148,0.0112844
394.248,0.0113804
394.348,0.0114776
394.448,0.011576
394.548,0.0116757
394.648,0.0117767
394.748,0.011879
394.848,0.0119826
394.948,0.0120876
395.048,0.012194
395.148,0.0123017
395.248,0.0124109
395.348,0.0125216
395.448,0.0126337
395.548,0.0127474
395.648,0.0128625
395.748,0.0129793
395.848,0.0130976
395.948,0.0132175
396.048,0.0133391
396.148,0.0134624
396.248,0.0135874
396.348,0.0137141
396.448,0.0138426
396.548,0.0139729
396.648,0.014105
396.748,0.014239
396.848,0.0143749
396.948,0.0145128
397.048,0.0146527
397.148,0.0147945
397.248,0.0149384
397.348,0.0150845
397.448,0.0152326
397.548,0.015383
397.648,0.0155356
397.748,0.0156904
397.848,0.0158476
397.948,0.0160071
398.048,0.016169
398.148,0.0163334
398.248,0.0165003
398.348,0.0166697
398.448,0.0168418
398.548,0.0170165
398.648,0.0171939
398.748,0.0173741
398.848,0.0175572
398.948,0.0177431
399.048,0.017932
399.148,0.0181239
399.248,0.0183188
399.348,0.0185169
399.448,0.0187182
399.548,0.0189228
399.648,0.0191308
399.748,0.0193422
399.848,0.019557
399.948,0.0197755
400.048,0.0199976
400.148,0.0202234
400.248,0.0204531
400.348,0.0206867
400.448,0.0209242
400.548,0.0211659
400.648,0.0214117
400.748,0.0216618
400.848,0.0219163
400.948,0.0221753
401.048,0.0224388
401.148,0.022707
401.248,0.0229801
401.348,0.023258
401.448,0.023541
401.548,0.0238291
401.648,0.0241225
401.748,0.0244213
401.848,0.0247257
401.948,0.0250357
402.048,0.0253516
402.148,0.0256734
402.248,0.0260013
402.348,0.0263355
402.448,0.0266761
402.548,0.0270233
402.648,0.0273772
402.748,0.0277381
402.848,0.0281061
402.948,0.0284814
403.048,0.0288642
403.148,0.0292547
403.248,0.0296531
403.348,0.0300596
403.448,0.0304744
403.548,0.0308978
403.648,0.0313299
403.748,0.0317711
403.848,0.0322216
403.948,0.0326816
404.048,0.0331514
404.148,0.0336313
404.248,0.0341216
404.348,0.0346225
404.448,0.0351344
404.548,0.0356577
404.648,0.0361925
404.748,0.0367393
404.848,0.0372985
404.948,0.0378703
405.048,0.0384552
405.148,0.0390536
405.248,0.0396658
405.348,0.0402924
405.448,0.0409337
405.548,0.0415902
405.648,0.0422624
405.748,0.0429508
405.848,0.0436559
405.948,0.0443782
406.048,0.0451183
406.148,0.0458768
406.248,0.0466542
406.348,0.0474513
406.448,0.0482686
406.548,0.0491068
406.648,0.0499667
406.748,0.0508489
406.848,0.0517543
406.948,0.0526836
407.048,0.0536377
407.148,0.0546174
407.248,0.0556237
407.348,0.0566575
407.448,0.0577198
407.548,0.0588117
407.648,0.0599341
407.748,0.0610882
407.848,0.0622753
407.948,0.0634965
408.048,0.0647532
408.148,0.0660466
408.248,0.0673782
408.348,0.0687495
408.448,0.070162
408.548,0.0716174
408.648,0.0731173
408.748,0.0746635
408.848,0.076258
408.948,0.0779025
409.048,0.0795993
409.148,0.0813505
409.248,0.0831584
409.348,0.0850252
409.448,0.0869536
409.548,0.0889462
409.648,0.0910058
409.748,0.0931352
409.848,0.0953376
409.948,0.0976161
410.048,0.0999743
410.148,0.102416
410.248,0.104944
410.348,0.107563
410.448,0.110277
410.548,0.113091
410.648,0.11601
410.748,0.119037
410.848,0.122179
410.948,0.125441
411.048,0.128829
411.148,0.132349
411.248,0.136007
411.348,0.139811
411.448,0.143767
411.548,0.147884
411.648,0.152169
411.748,0.156632
411.848,0.161281
411.948,0.166126
412.048,0.171178
412.148,0.176446
412.248,0.181943
412.348,0.187681
412.448,0.193673
412.548,0.199931
412.648,0.206472
412.748,0.213308
412.848,0.220458
412.948,0.227937
413.048,0.235763
413.148,0.243955
413.248,0.252533
413.348,0.261517
413.448,0.270929
413.548,0.280791
413.648,0.291126
413.748,0.301959
413.848,0.313316
413.948,0.325221
414.048,0.337701
414.148,0.350783
414.248,0.364494
414.348,0.37886
414.448,0.393908
414.548,0.409663
414.648,0.426149
414.748,0.443388
414.848,0.461398
414.948,0.480194
415.048,0.499786
415.148,0.520177
415.248,0.541363
415.348,0.563331
415.448,0.586056
415.548,0.609501
415.648,0.633612
415.748,0.65832
415.848,0.683535
415.948,0.709145
416.048,0.735016
416.148,0.760988
416.248,0.786877
416.348,0.812472
416.448,0.837537
416.548,0.861814
416.648,0.885027
416.748,0.906886
416.848,0.927093
416.948,0.945353
417.048,0.96138
417.148,0.974908
417.248,0.985704
417.348,0.993573
417.448,0.998368
417.548,1
417.648,0.998437
417.748,0.993708
417.848,0.985904
417.948,0.975169
418.048,0.961697
418.148,0.945721
418.248,0.927506
418.348,0.907338
418.448,0.885511
418.548,0.862324
418.648,0.838067
418.748,0.813016
418.848,0.78743
418.948,0.761545
419.048,0.735572
419.148,0.709697
419.248,0.68408
419.348,0.658856
419.448,0.634136
419.548,0.610011
419.648,0.586552
419.748,0.563811
419.848,0.541826
419.948,0.520623
420.048,0.500215
420.148,0.480606
420.248,0.461793
420.348,0.443766
420.448,0.426511
420.548,0.410009
420.648,0.394238
420.748,0.379175
420.848,0.364795
420.948,0.35107
421.048,0.337975
421.148,0.325482
421.248,0.313565
421.348,0.302197
421.448,0.291353
421.548,0.281007
421.648,0.271135
421.748,0.261714
421.848,0.252722
421.948,0.244135
422.048,0.235935
422.148,0.228101
422.248,0.220615
422.348,0.213458
422.448,0.206615
422.548,0.200069
422.648,0.193804
422.748,0.187807
422.848,0.182064
422.948,0.176562
423.048,0.171288
423.148,0.166232
423.248,0.161383
423.348,0.15673
423.448,0.152263
423.548,0.147974
423.648,0.143854
423.748,0.139894
423.848,0.136087
423.948,0.132426
424.048,0.128903
424.148,0.125512
424.248,0.122248
424.348,0.119103
424.448,0.116073
424.548,0.113153
424.648,0.110337
424.748,0.10762
424.848,0.104999
424.948,0.102469
425.048,0.100026
425.148,0.0976659
425.248,0.0953856
425.348,0.0931817
425.448,0.0910507
425.548,0.0889897
425.648,0.0869957
425.748,0.0850659
425.848,0.0831978
425.948,0.0813887
426.048,0.0796363
426.148,0.0779384
426.248,0.0762927
426.348,0.0746972
426.448,0.07315
426.548,0.0716491
426.648,0.0701928
426.748,0.0687794
426.848,0.0674072
426.948,0.0660747
427.048,0.0647805
427.148,0.0635231
427.248,0.0623011
427.348,0.0611133
427.448,0.0599585
427.548,0.0588354
427.648,0.0577429
427.748,0.05668
427.848,0.0556456
427.948,0.0546387
428.048,0.0536584
428.148,0.0527038
428.248,0.051774
428.348,0.0508681
428.448,0.0499854
428.548,0.049125
428.648,0.0482863
428.748,0.0474686
428.848,0.0466711
428.948,0.0458933
429.048,0.0451344
429.148,0.0443939
429.248,0.0436712
429.348,0.0429658
429.448,0.042277
429.548,0.0416045
429.648,0.0409476
429.748,0.040306
429.848,0.0396791
429.948,0.0390666
430.048,0.0384679
430.148,0.0378827
430.248,0.0373106
430.348,0.0367512
430.448,0.0362041
430.548,0.035669
430.648,0.0351455
430.748,0.0346334
430.848,0.0341322
430.948,0.0336417
431.048,0.0331616
431.148,0.0326916
431.248,0.0322313
431.348,0.0317807
431.448,0.0313393
431.548,0.0309069
431.648,0.0304834
431.748,0.0300684
431.848,0.0296617
431.948,0.0292632
432.048,0.0288725
432.148,0.0284895
432.248,0.0281141
432.348,0.0277459
432.448,0.0273849
432.548,0.0270308
432.648,0.0266834
432.748,0.0263427
432.848,0.0260084
432.948,0.0256803
433.048,0.0253584
433.148,0.0250424
433.248,0.0247323
433.348,0.0244278
433.448,0.0241289
433.548,0.0238353
433.648,0.0235471
433.748,0.023264
433.848,0.022986
433.948,0.0227128
434.048,0.0224445
434.148,0.0221809
434.248,0.0219218
434.348,0.0216672
434.448,0.021417
434.548,0.0211711
434.648,0.0209294
434.748,0.0206917
434.848,0.0204581
434.948,0.0202283
435.048,0.0200024
435.148,0.0197802
435.248,0.0195617
435.348,0.0193467
435.448,0.0191353
435.548,0.0189273
435.648,0.0187226
435.748,0.0185212
435.848,0.018323
435.948,0.018128
436.048,0.017936
436.148,0.0177471
436.248,0.0175611
436.348,0.017378
436.448,0.0171978
436.548,0.0170203
436.648,0.0168455
436.748,0.0166734
436.848,0.0165039
436.948,0.0163369
437.048,0.0161725
437.148,0.0160105
437.248,0.015851
437.348,0.0156938
437.448,0.0155389
437.548,0.0153862
437.648,0.0152358
437.748,0.0150876
437.848,0.0149416
437.948,0.0147976
438.048,0.0146557
438.148,0.0145158
438.248,0.0143779
438.348,0.0142419
438.448,0.0141079
438.548,0.0139757
438.648,0.0138454
438.748,0.0137168
438.848,0.0135901
438.948,0.0134651
439.048,0.0133418
439.148,0.0132201
439.248,0.0131002
439.348,0.0129818
439.448,0.012865
439.548,0.0127498
439.648,0.0126362
439.748,0.012524
439.848,0.0124133
439.948,0.0123041
440.048,0.0121963
440.148,0.0120899
440.248,0.0119849
440.348,0.0118812
440.448,0.0117789
440.548,0.0116779
440.648,0.0115781
440.748,0.0114797
440.848,0.0113825
440.948,0.0112865
441.048,0.0111917
441.148,0.0110981
441.248,0.0110057
441.348,0.0109144
441.448,0.0108242
441.548,0.0107352
441.648,0.0106472
441.748,0.0105603
441.848,0.0104745
441.948,0.0103897
442.048,0.0103059
442.148,0.0102232
442.248,0.0101414
442.348,0.0100606
442.448,0.00998073
442.548,0.00990183
442.648,0.00982386
442.748,0.0097468
442.848,0.00967065
442.948,0.00959537
443.048,0.00952098
443.148,0.00944744
443.248,0.00937474
443.348,0.00930288
443.448,0.00923184
443.548,0.00916161
443.648,0.00909218
443.748,0.00902353
443.848,0.00895565
443.948,0.00888853
444.048,0.00882216
444.148,0.00875653
444.248,0.00869163
444.348,0.00862744
444.448,0.00856396
444.548,0.00850118
444.648,0.00843908
444.748,0.00837766
444.848,0.00831691
444.948,0.00825681
445.048,0.00819736
445.148,0.00813854
445.248,0.00808036
445.348,0.00802279
445.448,0.00796584
445.548,0.00790949
445.648,0.00785373
445.748,0.00779856
445.848,0.00774397
445.948,0.00768995
446.048,0.00763649
446.148,0.00758358
446.248,0.00753122
446.348,0.0074794
446.448,0.00742811
446.548,0.00737735
446.648,0.0073271
446.748,0.00727736
446.848,0.00722813
446.948,0.00717939
447.048,0.00713115
447.148,0.00708338
447.248,0.0070361
447.348,0.00698928
447.448,0.00694293
447.548,0.00689704
447.648,0.0068516
447.748,0.00680661
447.848,0.00676206
447.948,0.00671794
448.048,0.00667425
448.148,0.00663099
448.248,0.00658814
448.348,0.00654571
448.448,0.00650368
448.548,0.00646206
448.648,0.00642084
448.748,0.00638
448.848,0.00633956
448.948,0.0062995
449.048,0.00625981
449.148,0.0062205
449.248,0.00618156
449.348,0.00614298
449.448,0.00610476
449.548,0.00606689
449.648,0.00602938
449.748,0.00599221
449.848,0.00595538
449.948,0.00591889
450.048,0.00588274
450.148,0.00584691
450.248,0.00581141
450.348,0.00577624
450.448,0.00574137
450.548,0.00570683
450.648,0.00567259
450.748,0.00563866
450.848,0.00560504
450.948,0.00557171
451.048,0.00553868
451.148,0.00550594
451.248,0.00547349
451.348,0.00544132
451.448,0.00540944
451.548,0.00537784
451.648,0.00534651
451.748,0.00531545
451.848,0.00528467
451.948,0.00525415
452.048,0.00522389
452.148,0.0051939
452.248,0.00516416
452.348,0.00513467
452.448,0.00510544
452.548,0.00507645
452.648,0.00504771
452.748,0.00501922
452.848,0.00499096
452.948,0.00496294
453.048,0.00493516
453.148,0.0049076
453.248,0.00488028
453.348,0.00485319
453.448,0.00482632
453.548,0.00479967
453.648,0.00477324
453.748,0.00474703
453.848,0.00472104
453.948,0.00469525
454.048,0.00466968
454.148,0.00464431
454.248,0.00461916
454.348,0.0045942
454.448,0.00456945
454.548,0.00454489
454.648,0.00452053
454.748,0.00449637
454.848,0.0044724
454.948,0.00444862
455.048,0.00442503
455.148,0.00440163
455.248,0.00437841
455.348,0.00435537
455.448,0.00433252
455.548,0.00430984
455.648,0.00428735
455.748,0.00426502
455.848,0.00424287
455.948,0.0042209
456.048,0.00419909
456.148,0.00417745
456.248,0.00415598
456.348,0.00413467
456.448,0.00411353
456.548,0.00409255
456.648,0.00407172
456.748,0.00405106
456.848,0.00403055
456.948,0.0040102
457.048,0.00399
457.148,0.00396996
457.248,0.00395006
457.348,0.00393031
457.448,0.00391071
457.548,0.00389126
457.648,0.00387195
457.748,0.00385278
457.848,0.00383376
457.948,0.00381488
458.048,0.00379613
458.148,0.00377752
458.248,0.00375905
458.348,0.00374072
458.448,0.00372252
458.548,0.00370445
458.648,0.00368651
458.748,0.0036687
458.848,0.00365102
458.948,0.00363346
459.048,0.00361604
459.148,0.00359874
459.248,0.00358156
459.348,0.0035645
459.448,0.00354757
459.548,0.00353075
459.648,0.00351406
459.748,0.00349748
459.848,0.00348102
459.948,0.00346468
460.048,0.00344845
460.148,0.00343233
460.248,0.00341633
460.348,0.00340044
460.448,0.00338466
460.548,0.00336899
460.648,0.00335342
460.748,0.00333797
460.848,0.00332262
460.948,0.00330737
461.048,0.00329223
461.148,0.0032772
461.248,0.00326227
461.348,0.00324743
461.448,0.0032327
461.548,0.00321807
461.648,0.00320354
461.748,0.00318911
461.848,0.00317477
461.948,0.00316053
462.048,0.00314639
462.148,0.00313234
462.248,0.00311838
462.348,0.00310452
462.448,0.00309075
462.548,0.00307707
462.648,0.00306348
462.748,0.00304998
462.848,0.00303657
462.948,0.00302325
463.048,0.00301001
463.148,0.00299687
463.248,0.0029838
463.348,0.00297083
463.448,0.00295793
463.548,0.00294512
463.648,0.0029324
463.748,0.00291975
463.848,0.00290719
463.948,0.00289471
464.048,0.00288231
464.148,0.00286999
464.248,0.00285774
464.348,0.00284558
464.448,0.00283349
464.548,0.00282148
464.648,0.00280955
464.748,0.00279769
464.848,0.0027859
464.948,0.00277419
465.048,0.00276256
465.148,0.00275099
465.248,0.0027395
465.348,0.00272808
465.448,0.00271673
465.548,0.00270546
465.648,0.00269425
465.748,0.00268311
465.848,0.00267204
465.948,0.00266104
466.048,0.00265011
466.148,0.00263924
466.248,0.00262844
466.348,0.00261771
466.448,0.00260704
466.548,0.00259644
466.648,0.0025859
466.748,0.00257542
466.848,0.00256501
466.948,0.00255467
467.048,0.00254438
467.148,0.00253416
467.248,0.00252399
467.348,0.00251389
467.448,0.00250385
467.548,0.00249387
467.648,0.00248395
467.748,0.00247409
467.848,0.00246429
467.948,0.00245454
468.048,0.00244485
468.148,0.00243522
468.248,0.00242565
468.348,0.00241613
468.448,0.00240667
468.548,0.00239726
468.648,0.00238791
468.748,0.00237861
468.848,0.00236937
468.948,0.00236018
469.048,0.00235105
469.148,0.00234196
469.248,0.00233293
469.348,0.00232396
469.448,0.00231503
469.548,0.00230616
469.648,0.00229733
469.748,0.00228856
469.848,0.00227983
469.948,0.00227116
470.048,0.00226254
470.148,0.00225396
470.248,0.00224543
470.348,0.00223695
470.448,0.00222852
470.548,0.00222014
470.648,0.00221181
470.748,0.00220352
470.848,0.00219527
470.948,0.00218708
471.048,0.00217893
471.148,0.00217082
471.248,0.00216276
471.348,0.00215475
471.448,0.00214677
471.548,0.00213885
471.648,0.00213096
471.748,0.00212313
471.848,0.00211533
471.948,0.00210758
472.048,0.00209986
472.148,0.0020922
472.248,0.00208457
472.348,0.00207698
472.448,0.00206944
472.548,0.00206194
472.648,0.00205447
472.748,0.00204705
472.848,0.00203967
472.948,0.00203233
473.048,0.00202503
473.148,0.00201776
473.248,0.00201054
473.348,0.00200335
473.448,0.00199621
473.548,0.0019891
473.648,0.00198203
473.748,0.00197499
473.848,0.001968
473.948,0.00196104
474.048,0.00195411
474.148,0.00194723
474.248,0.00194038
474.348,0.00193357
474.448,0.00192679
474.548,0.00192005
474.648,0.00191334
474.748,0.00190667
474.848,0.00190003
474.948,0.00189343
475.048,0.00188686
475.148,0.00188033
475.248,0.00187383
475.348,0.00186736
475.448,0.00186093
475.548,0.00185453
475.648,0.00184816
475.748,0.00184183
475.848,0.00183553
475.948,0.00182926
476.048,0.00182302
476.148,0.00181682
476.248,0.00181064
476.348,0.0018045
476.448,0.00179839
476.548,0.00179231
476.648,0.00178626
476.748,0.00178024
476.848,0.00177425
476.948,0.00176829
477.048,0.00176236
477.148,0.00175647
477.248,0.0017506
477.348,0.00174476
477.448,0.00173895
477.548,0.00173316
477.648,0.00172741
477.748,0.00172169
477.848,0.00171599
477.948,0.00171032
478.048,0.00170468
478.148,0.00169907
478.248,0.00169349
478.348,0.00168793
478.448,0.0016824
478.548,0.0016769
478.648,0.00167142
478.748,0.00166597
478.848,0.00166055
478.948,0.00165516
479.048,0.00164979
479.148,0.00164444
479.248,0.00163913
479.348,0.00163383
479.448,0.00162857
479.548,0.00162333
479.648,0.00161811
479.748,0.00161292
479.848,0.00160776
479.948,0.00160261
480.048,0.0015975
480.148,0.00159241
480.248,0.00158734
480.348,0.0015823
480.448,0.00157728
480.548,0.00157228
480.648,0.00156731
480.748,0.00156236
480.848,0.00155744
480.948,0.00155254
481.048,0.00154766
481.148,0.0015428
481.248,0.00153797
481.348,0.00153316
481.448,0.00152837
481.548,0.00152361
481.648,0.00151886
481.748,0.00151414
481.848,0.00150944
481.948,0.00150477
482.048,0.00150011
482.148,0.00149548
482.248,0.00149086
482.348,0.00148627
482.448,0.0014817
482.548,0.00147715
482.648,0.00147263
482.748,0.00146812
482.848,0.00146363
482.948,0.00145917
483.048,0.00145472
483.148,0.00145029
483.248,0.00144589
483.348,0.0014415
483.448,0.00143714
483.548,0.00143279
483.648,0.00142847
483.748,0.00142416
483.848,0.00141987
483.948,0.00141561
484.048,0.00141136
484.148,0.00140713
484.248,0.00140292
484.348,0.00139873
484.448,0.00139455
484.548,0.0013904
484.648,0.00138627
484.748,0.00138215
484.848,0.00137805
484.948,0.00137397
485.048,0.00136991
485.148,0.00136586
485.248,0.00136184
485.348,0.00135783
485.448,0.00135384
485.548,0.00134986
485.648,0.00134591
485.748,0.00134197
485.848,0.00133805
485.948,0.00133414
486.048,0.00133025
486.148,0.00132638
486.248,0.00132253
486.348,0.00131869
486.448,0.00131487
486.548,0.00131107
486.648,0.00130728
486.748,0.00130351
486.848,0.00129976
486.948,0.00129602
487.048,0.0012923
487.148,0.00128859
487.248,0.0012849
487.348,0.00128123
487.448,0.00127757
487.548,0.00127392
487.648,0.0012703
487.748,0.00126668
487.848,0.00126309
487.948,0.00125951
488.048,0.00125594
488.148,0.00125239
488.248,0.00124885
488.348,0.00124533
488.448,0.00124183
488.548,0.00123834
488.648,0.00123486
488.748,0.0012314
488.848,0.00122795
488.948,0.00122452
489.048,0.0012211
489.148,0.00121769
489.248,0.0012143
489.348,0.00121093
489.448,0.00120756
489.548,0.00120422
489.648,0.00120088
489.748,0.00119756
489.848,0.00119426
489.948,0.00119096
490.048,0.00118768
490.148,0.00118442
490.248,0.00118117
490.348,0.00117793
490.448,0.0011747
490.548,0.00117149
490.648,0.00116829
490.748,0.0011651
490.848,0.00116193
490.948,0.00115877
491.048,0.00115562
491.148,0.00115249
491.248,0.00114937
491.348,0.00114626
491.448,0.00114316
491.548,0.00114008
491.648,0.001137
491.748,0.00113395
491.848,0.0011309
491.948,0.00112786
492.048,0.00112484
492.148,0.00112183
492.248,0.00111883
492.348,0.00111585
492.448,0.00111287
492.548,0.00110991
492.648,0.00110696
492.748,0.00110402
492.848,0.00110109
492.948,0.00109818
493.048,0.00109527
493.148,0.00109238
493.248,0.0010895
493.348,0.00108663
493.448,0.00108377
493.548,0.00108092
493.648,0.00107809
493.748,0.00107526
493.848,0.00107245
493.948,0.00106965
494.048,0.00106686
494.148,0.00106408
494.248,0.00106131
494.348,0.00105855
494.448,0.0010558
494.548,0.00105306
494.648,0.00105033
494.748,0.00104762
494.848,0.00104491
494.948,0.00104221
495.048,0.00103953
495.148,0.00103686
495.248,0.00103419
495.348,0.00103154
495.448,0.00102889
495.548,0.00102626
495.648,0.00102363
495.748,0.00102102
495.848,0.00101842
495.948,0.00101582
496.048,0.00101324
496.148,0.00101067
496.248,0.0010081
496.348,0.00100555
496.448,0.001003
496.548,0.00100047
496.648,0.000997942
496.748,0.000995426
496.848,0.000992919
496.948,0.000990422
497.048,0.000987935
497.148,0.000985456
497.248,0.000982987
497.348,0.000980528
497.448,0.000978077
497.548,0.000975636
497.648,0.000973204
497.748,0.000970781
497.848,0.000968367
497.948,0.000965961
498.048,0.000963565
498.148,0.000961178
498.248,0.0009588
498.348,0.00095643
498.448,0.000954069
498.548,0.000951717
498.648,0.000949374
498.748,0.000947039
498.848,0.000944713
498.948,0.000942395
499.048,0.000940086
499.148,0.000937786
499.248,0.000935494
499.348,0.00093321
499.448,0.000930934
499.548,0.000928667
499.648,0.000926408
499.748,0.000924158
499.848,0.000921915
499.948,0.000919681
500.048,0.000917455
500.148,0.000915237
500.248,0.000913027
500.348,0.000910825
500.448,0.000908631
500.548,0.000906444
500.648,0.000904266
500.748,0.000902096
500.848,0.000899933
500.948,0.000897778
501.048,0.000895631
501.148,0.000893491
501.248,0.00089136
501.348,0.000889235
501.448,0.000887119
501.548,0.00088501
501.648,0.000882908
501.748,0.000880814
501.848,0.000878727
501.948,0.000876648
502.048,0.000874576
502.148,0.000872512
502.248,0.000870454
502.348,0.000868404
502.448,0.000866362
502.548,0.000864326
502.648,0.000862298
502.748,0.000860276
502.848,0.000858262
502.948,0.000856255
503.048,0.000854255
503.148,0.000852262
503.248,0.000850276
503.348,0.000848297
503.448,0.000846324
503.548,0.000844359
503.648,0.0008424
503.748,0.000840449
503.848,0.000838504
503.948,0.000836565
504.048,0.000834634
504.148,0.000832709
504.248,0.000830791
504.348,0.000828879
504.448,0.000826974
504.548,0.000825076
504.648,0.000823184
504.748,0.000821298
504.848,0.000819419
504.948,0.000817547
505.048,0.000815681
505.148,0.000813821
505.248,0.000811968
505.348,0.00081012
505.448,0.00080828
505.548,0.000806445
505.648,0.000804617
505.748,0.000802795
505.848,0.000800979
505.948,0.000799169
506.048,0.000797366
506.148,0.000795568
506.248,0.000793777
506.348,0.000791991
506.448,0.000790212
506.548,0.000788439
506.648,0.000786671
506.748,0.00078491
506.848,0.000783154
506.948,0.000781404
507.048,0.000779661
507.148,0.000777923
507.248,0.00077619
507.348,0.000774464
507.448,0.000772743
507.548,0.000771028
507.648,0.000769319
507.748,0.000767616
507.848,0.000765918
507.948,0.000764225
508.048,0.000762539
508.148,0.000760858
508.248,0.000759182
508.348,0.000757512
508.448,0.000755847
508.548,0.000754188
508.648,0.000752535
508.748,0.000750887
508.848,0.000749244
508.948,0.000747606
509.048,0.000745974
509.148,0.000744348
509.248,0.000742726
509.348,0.00074111
509.448,0.000739499
509.548,0.000737894
509.648,0.000736294
509.748,0.000734698
509.848,0.000733108
509.948,0.000731524
510.048,0.000729944
510.148,0.000728369
510.248,0.0007268
510.348,0.000725235
510.448,0.000723676
510.548,0.000722122
510.648,0.000720572
510.748,0.000719028
510.848,0.000717489
510.948,0.000715954
511.048,0.000714425
511.148,0.0007129
511.248,0.00071138
511.348,0.000709865
511.448,0.000708355
511.548,0.00070685
511.648,0.000705349
511.748,0.000703854
511.848,0.000702363
511.948,0.000700876
512.048,0.000699395
512.148,0.000697918
512.248,0.000696446
512.348,0.000694978
512.448,0.000693515
512.548,0.000692057
512.648,0.000690603
512.748,0.000689154
512.848,0.00068771
512.948,0.00068627
513.048,0.000684834
513.148,0.000683403
513.248,0.000681977
513.348,0.000680555
513.448,0.000679137
513.548,0.000677724
513.648,0.000676315
513.748,0.000674911
513.848,0.000673511
513.948,0.000672115
514.048,0.000670724
514.148,0.000669337
514.248,0.000667954
514.348,0.000666575
514.448,0.000665201
514.548,0.000663831
514.648,0.000662466
514.748,0.000661104
514.848,0.000659747
514.948,0.000658394
515.048,0.000657045
515.148,0.0006557
515.248,0.000654359
515.348,0.000653022
515.448,0.00065169
515.548,0.000650362
515.648,0.000649037
515.748,0.000647717
515.848,0.0006464
515.948,0.000645088
516.048,0.00064378
516.148,0.000642475
516.248,0.000641175
516.348,0.000639879
516.448,0.000638586
516.548,0.000637297
516.648,0.000636013
516.748,0.000634732
516.848,0.000633455
516.948,0.000632182
517.048,0.000630912