File: inn/kurimoto_2004/500C/raman/curve_2_fit.dat
392.948,2.00804e-92
393.048,3.01627e-92
393.148,4.52891e-92
393.248,6.79741e-92
393.348,1.01981e-91
393.448,1.5294e-91
393.548,2.29272e-91
393.648,3.43563e-91
393.748,5.14621e-91
393.848,7.70541e-91
393.948,1.15327e-90
394.048,1.7254e-90
394.148,2.58034e-90
394.248,3.85735e-90
394.348,5.76406e-90
394.448,8.60982e-90
394.548,1.28554e-89
394.648,1.91868e-89
394.748,2.86252e-89
394.848,4.26892e-89
394.948,6.36378e-89
395.048,9.48284e-89
395.148,1.4125e-88
395.248,2.10312e-88
395.348,3.13015e-88
395.448,4.65687e-88
395.548,6.92545e-88
395.648,1.02951e-87
395.748,1.52981e-87
395.848,2.27232e-87
395.948,3.37388e-87
396.048,5.00743e-87
396.148,7.42895e-87
396.248,1.10171e-86
396.348,1.63317e-86
396.448,2.42003e-86
396.548,3.58459e-86
396.648,5.30741e-86
396.748,7.85511e-86
396.848,1.16211e-85
396.948,1.71859e-85
397.048,2.5405e-85
397.148,3.75401e-85
397.248,5.54493e-85
397.348,8.18698e-85
397.448,1.20831e-84
397.548,1.78262e-84
397.648,2.62884e-84
397.748,3.87523e-84
397.848,5.71026e-84
397.948,8.41088e-84
398.048,1.23838e-83
398.148,1.8226e-83
398.248,2.68136e-83
398.348,3.94317e-83
398.448,5.79645e-83
398.548,8.51736e-83
398.648,1.25105e-82
398.748,1.83683e-82
398.848,2.69583e-82
398.948,3.95494e-82
399.048,5.79982e-82
399.148,8.50188e-82
399.248,1.24578e-81
399.348,1.82472e-81
399.448,2.67162e-81
399.548,3.91004e-81
399.648,5.72022e-81
399.748,8.3651e-81
399.848,1.2228e-80
399.948,1.78676e-80
400.048,2.60978e-80
400.148,3.81037e-80
400.248,5.56106e-80
400.348,8.11285e-80
400.448,1.18308e-79
400.548,1.72458e-79
400.648,2.51292e-79
400.748,3.66016e-79
400.848,5.32903e-79
400.948,7.75571e-79
401.048,1.12829e-78
401.148,1.64077e-78
401.248,2.38507e-78
401.348,3.46561e-78
401.448,5.03367e-78
401.548,7.3083e-78
401.648,1.06065e-77
401.748,1.53871e-77
401.848,2.23135e-77
401.948,3.23448e-77
402.048,4.68671e-77
402.148,6.78824e-77
402.248,9.82816e-77
402.348,1.42237e-76
402.448,2.0577e-76
402.548,2.97561e-76
402.648,4.30127e-76
402.748,6.21504e-76
402.848,8.9767e-76
402.948,1.29603e-75
403.048,1.87043e-75
403.148,2.69832e-75
403.248,3.8911e-75
403.348,5.60889e-75
403.448,8.08179e-75
403.548,1.16403e-74
403.648,1.6759e-74
403.748,2.41189e-74
403.848,3.46971e-74
403.948,4.98949e-74
404.048,7.17207e-74
404.148,1.03053e-73
404.248,1.48013e-73
404.348,2.12504e-73
404.448,3.04973e-73
404.548,4.37503e-73
404.648,6.27375e-73
404.748,8.9929e-73
404.848,1.28854e-72
404.948,1.84554e-72
405.048,2.64226e-72
405.148,3.7814e-72
405.248,5.40949e-72
405.348,7.73547e-72
405.448,1.10572e-71
405.548,1.57989e-71
405.648,2.2565e-71
405.748,3.22159e-71
405.848,4.59761e-71
405.948,6.55873e-71
406.048,9.35264e-71
406.148,1.33314e-70
406.248,1.89951e-70
406.348,2.70542e-70
406.448,3.85171e-70
406.548,5.4815e-70
406.648,7.79778e-70
406.748,1.10884e-69
406.848,1.57614e-69
406.948,2.23946e-69
407.048,3.18069e-69
407.148,4.51569e-69
407.248,6.40846e-69
407.348,9.09096e-69
407.448,1.28912e-68
407.548,1.82726e-68
407.648,2.58902e-68
407.748,3.66687e-68
407.848,5.19138e-68
407.948,7.34677e-68
408.048,1.03929e-67
408.148,1.46961e-67
408.248,2.07728e-67
408.348,2.93504e-67
408.448,4.14532e-67
408.548,5.85234e-67
408.648,8.259e-67
408.748,1.16507e-66
408.848,1.64286e-66
408.948,2.31567e-66
409.048,3.26272e-66
409.148,4.59525e-66
409.248,6.4694e-66
409.348,9.10428e-66
409.448,1.28072e-65
409.548,1.80089e-65
409.648,2.53132e-65
409.748,3.55659e-65
409.848,4.99513e-65
409.948,7.01272e-65
410.048,9.84128e-65
410.148,1.38052e-64
410.248,1.9358e-64
410.348,2.71335e-64
410.448,3.80169e-64
410.548,5.32443e-64
410.648,7.45412e-64
410.748,1.04315e-63
410.848,1.45922e-63
410.948,2.04044e-63
411.048,2.85201e-63
411.148,3.9848e-63
411.248,5.56528e-63
411.348,7.76952e-63
411.448,1.08425e-62
411.548,1.51247e-62
411.648,2.10898e-62
411.748,2.93958e-62
411.848,4.09566e-62
411.948,5.70412e-62
412.048,7.94109e-62
412.148,1.10509e-61
412.248,1.53724e-61
412.348,2.13752e-61
412.448,2.97103e-61
412.548,4.1279e-61
412.648,5.73295e-61
412.748,7.95891e-61
412.848,1.10447e-60
412.948,1.53208e-60
413.048,2.1244e-60
413.148,2.94453e-60
413.248,4.07965e-60
413.348,5.6501e-60
413.448,7.82195e-60
413.548,1.08243e-59
413.648,1.49731e-59
413.748,2.07038e-59
413.848,2.86163e-59
413.948,3.95371e-59
414.048,5.46036e-59
414.148,7.53814e-59
414.248,1.04024e-58
414.348,1.43492e-58
414.448,1.97857e-58
414.548,2.72709e-58
414.648,3.75728e-58
414.748,5.17457e-58
414.848,7.12363e-58
414.948,9.8029e-58
415.048,1.34845e-57
415.148,1.85413e-57
415.248,2.54843e-57
415.348,3.50131e-57
415.448,4.80856e-57
415.548,6.60125e-57
415.648,9.05864e-57
415.748,1.24259e-56
415.848,1.70379e-56
415.948,2.33525e-56
416.048,3.19945e-56
416.148,4.38171e-56
416.248,5.99844e-56
416.348,8.20843e-56
416.448,1.12281e-55
416.548,1.53526e-55
416.648,2.09837e-55
416.748,2.86687e-55
416.848,3.91526e-55
416.948,5.34489e-55
417.048,7.29364e-55
417.148,9.94892e-55
417.248,1.35654e-54
417.348,1.84892e-54
417.448,2.519e-54
417.548,3.43056e-54
417.648,4.67011e-54
417.748,6.35502e-54
417.848,8.64435e-54
417.948,1.17537e-53
418.048,1.5975e-53
418.148,2.17038e-53
418.248,2.94752e-53
418.348,4.00132e-53
418.448,5.42971e-53
418.548,7.36506e-53
418.648,9.98624e-53
418.748,1.35349e-52
418.848,1.83372e-52
418.948,2.48334e-52
419.048,3.36177e-52
419.148,4.54909e-52
419.248,6.1533e-52
419.348,8.3199e-52
419.448,1.12449e-51
419.548,1.5192e-51
419.648,2.05166e-51
419.748,2.76962e-51
419.848,3.73732e-51
419.948,5.04113e-51
420.048,6.79707e-51
420.148,9.16097e-51
420.248,1.23421e-50
420.348,1.66211e-50
420.448,2.23748e-50
420.548,3.01082e-50
420.648,4.04982e-50
420.748,5.44519e-50
420.848,7.31842e-50
420.948,9.83212e-50
421.048,1.32039e-49
421.148,1.7725e-49
421.248,2.37846e-49
421.348,3.1903e-49
421.448,4.27753e-49
421.548,5.73298e-49
421.648,7.68059e-49
421.748,1.02857e-48
421.848,1.3769e-48
421.948,1.84245e-48
422.048,2.46442e-48
422.148,3.29503e-48
422.248,4.40384e-48
422.348,5.88342e-48
422.448,7.85696e-48
422.548,1.04883e-47
422.648,1.39953e-47
422.748,1.86675e-47
422.848,2.48894e-47
422.948,3.31719e-47
423.048,4.41929e-47
423.148,5.8852e-47
423.248,7.83422e-47
423.348,1.04245e-46
423.448,1.38658e-46
423.548,1.84356e-46
423.648,2.45018e-46
423.748,3.2551e-46
423.848,4.32271e-46
423.948,5.73819e-46
424.048,7.61412e-46
424.148,1.00993e-45
424.248,1.33902e-45
424.348,1.77465e-45
424.448,2.35105e-45
424.548,3.11343e-45
424.648,4.12137e-45
424.748,5.45344e-45
424.848,7.21316e-45
424.948,9.5369e-45
425.048,1.26042e-44
425.148,1.66513e-44
425.248,2.19892e-44
425.348,2.90266e-44
425.448,3.83009e-44
425.548,5.05182e-44
425.648,6.6606e-44
425.748,8.77819e-44
425.848,1.15644e-43
425.948,1.52289e-43
426.048,2.00465e-43
426.148,2.63776e-43
426.248,3.46943e-43
426.348,4.5615e-43
426.448,5.99492e-43
426.548,7.87563e-43
426.648,1.03422e-42
426.748,1.35759e-42
426.848,1.78135e-42
426.948,2.33645e-42
427.048,3.0633e-42
427.148,4.01467e-42
427.248,5.25939e-42
427.348,6.88728e-42
427.448,9.01542e-42
427.548,1.17964e-41
427.648,1.54292e-41
427.748,2.01725e-41
427.848,2.63635e-41
427.948,3.44408e-41
428.048,4.49748e-41
428.148,5.87073e-41
428.248,7.66021e-41
428.348,9.99116e-41
428.448,1.30262e-40
428.548,1.69764e-40
428.648,2.21156e-40
428.748,2.87991e-40
428.848,3.74874e-40
428.948,4.87774e-40
429.048,6.34421e-40
429.148,8.24827e-40
429.248,1.07195e-39
429.348,1.39255e-39
429.448,1.80832e-39
429.548,2.34729e-39
429.648,3.04568e-39
429.748,3.95027e-39
429.848,5.12149e-39
429.948,6.6373e-39
430.048,8.59832e-39
430.148,1.11343e-38
430.248,1.44124e-38
430.348,1.86482e-38
430.448,2.41193e-38
430.548,3.1183e-38
430.648,4.02992e-38
430.748,5.20598e-38
430.848,6.72256e-38
430.948,8.67747e-38
431.048,1.11964e-37
431.148,1.44407e-37
431.248,1.86177e-37
431.348,2.39933e-37
431.448,3.09086e-37
431.548,3.98012e-37
431.648,5.12316e-37
431.748,6.59184e-37
431.848,8.47816e-37
431.948,1.08999e-36
432.048,1.40078e-36
432.148,1.79947e-36
432.248,2.31071e-36
432.348,2.966e-36
432.448,3.8056e-36
432.548,4.88093e-36
432.648,6.2576e-36
432.748,8.01935e-36
432.848,1.0273e-35
432.948,1.31547e-35
433.048,1.6838e-35
433.148,2.15441e-35
433.248,2.75544e-35
433.348,3.52274e-35
433.448,4.5019e-35
433.548,5.75092e-35
433.648,7.34354e-35
433.748,9.37346e-35
433.848,1.19597e-34
433.948,1.52534e-34
434.048,1.94465e-34
434.148,2.47822e-34
434.248,3.15694e-34
434.348,4.01992e-34
434.448,5.11677e-34
434.548,6.51029e-34
434.648,8.28002e-34
434.748,1.05266e-33
434.848,1.33774e-33
434.948,1.69935e-33
435.048,2.15783e-33
435.148,2.73892e-33
435.248,3.47511e-33
435.348,4.40741e-33
435.448,5.58759e-33
435.548,7.08096e-33
435.648,8.96986e-33
435.748,1.13581e-32
435.848,1.43765e-32
435.948,1.81897e-32
436.048,2.30051e-32
436.148,2.90836e-32
436.248,3.67536e-32
436.348,4.64277e-32
436.448,5.86248e-32
436.548,7.39966e-32
436.648,9.33616e-32
436.748,1.17747e-31
436.848,1.48443e-31
436.948,1.87066e-31
437.048,2.35644e-31
437.148,2.96719e-31
437.248,3.73473e-31
437.348,4.69894e-31
437.448,5.90971e-31
437.548,7.4295e-31
437.648,9.33639e-31
437.748,1.1728e-30
437.848,1.47264e-30
437.948,1.84839e-30
438.048,2.3191e-30
438.148,2.9085e-30
438.248,3.64625e-30
438.348,4.5693e-30
438.448,5.72374e-30
438.548,7.16697e-30
438.648,8.97052e-30
438.748,1.12234e-29
438.848,1.40366e-29
438.948,1.75478e-29
439.048,2.19285e-29
439.148,2.73919e-29
439.248,3.42029e-29
439.348,4.26903e-29
439.448,5.32625e-29
439.548,6.64263e-29
439.648,8.28104e-29
439.748,1.03194e-28
439.848,1.28545e-28
439.948,1.60058e-28
440.048,1.99218e-28
440.148,2.47859e-28
440.248,3.08253e-28
440.348,3.83209e-28
440.448,4.76202e-28
440.548,5.91524e-28
440.648,7.3448e-28
440.748,9.11621e-28
440.848,1.13103e-27
440.948,1.40269e-27
441.048,1.7389e-27
441.148,2.15483e-27
441.248,2.66919e-27
441.348,3.30499e-27
441.448,4.09062e-27
441.548,5.06096e-27
441.648,6.25898e-27
441.748,7.7375e-27
441.848,9.56145e-27
441.948,1.18106e-26
442.048,1.45831e-26
442.148,1.79991e-26
442.248,2.22065e-26
442.348,2.73863e-26
442.448,3.3761e-26
442.548,4.16027e-26
442.648,5.12455e-26
442.748,6.30979e-26
442.848,7.76607e-26
442.948,9.55462e-26
443.048,1.17504e-25
443.148,1.4445e-25
443.248,1.77504e-25
443.348,2.18035e-25
443.448,2.67713e-25
443.548,3.28579e-25
443.648,4.03121e-25
443.748,4.94377e-25
443.848,6.06048e-25
443.948,7.42646e-25
444.048,9.09669e-25
444.148,1.11381e-24
444.248,1.36322e-24
444.348,1.6678e-24
444.448,2.03963e-24
444.548,2.49336e-24
444.648,3.0468e-24
444.748,3.72159e-24
444.848,4.54402e-24
444.948,5.54598e-24
445.048,6.76617e-24
445.148,8.25151e-24
445.248,1.00589e-23
445.348,1.22573e-23
445.448,1.49301e-23
445.548,1.81785e-23
445.648,2.21248e-23
445.748,2.69171e-23
445.848,3.27343e-23
445.948,3.97927e-23
446.048,4.83538e-23
446.148,5.87332e-23
446.248,7.13121e-23
446.348,8.65505e-23
446.448,1.05003e-22
446.548,1.27339e-22
446.648,1.54364e-22
446.748,1.87049e-22
446.848,2.26565e-22
446.948,2.74319e-22
447.048,3.32006e-22
447.148,4.01664e-22
447.248,4.85741e-22
447.348,5.87183e-22
447.448,7.09527e-22
447.548,8.57018e-22
447.648,1.03476e-21
447.748,1.24885e-21
447.848,1.50665e-21
447.948,1.81693e-21
448.048,2.19023e-21
448.148,2.63918e-21
448.248,3.17889e-21
448.348,3.82742e-21
448.448,4.60643e-21
448.548,5.54177e-21
448.648,6.66436e-21
448.748,8.01116e-21
448.848,9.62628e-21
448.948,1.15624e-20
449.048,1.38824e-20
449.148,1.66611e-20
449.248,1.99882e-20
449.348,2.397e-20
449.448,2.87335e-20
449.548,3.44298e-20
449.648,4.1239e-20
449.748,4.9375e-20
449.848,5.90926e-20
449.948,7.06945e-20
450.048,8.45403e-20
450.148,1.01057e-19
450.248,1.20753e-19
450.348,1.4423e-19
450.448,1.72203e-19
450.548,2.05518e-19
450.648,2.4518e-19
450.748,2.9238e-19
450.848,3.48527e-19
450.948,4.1529e-19
451.048,4.94644e-19
451.148,5.88925e-19
451.248,7.00896e-19
451.348,8.33823e-19
451.448,9.91562e-19
451.548,1.17867e-18
451.648,1.40053e-18
451.748,1.66348e-18
451.848,1.975e-18
451.948,2.34393e-18
452.048,2.78067e-18
452.148,3.29746e-18
452.248,3.90874e-18
452.348,4.63147e-18
452.448,5.48565e-18
452.548,6.49477e-18
452.648,7.68644e-18
452.748,9.09313e-18
452.848,1.07529e-17
452.948,1.27107e-17
453.048,1.50188e-17
453.148,1.77389e-17
453.248,2.09434e-17
453.348,2.47168e-17
453.448,2.91585e-17
453.548,3.43845e-17
453.648,4.0531e-17
453.748,4.77571e-17
453.848,5.62491e-17
453.948,6.62245e-17
454.048,7.79378e-17
454.148,9.16862e-17
454.248,1.07817e-16
454.348,1.26734e-16
454.448,1.48912e-16
454.548,1.749e-16
454.648,2.05342e-16
454.748,2.40986e-16
454.848,2.82704e-16
454.948,3.31511e-16
455.048,3.88589e-16
455.148,4.55312e-16
455.248,5.33278e-16
455.348,6.24345e-16
455.448,7.30672e-16
455.548,8.54764e-16
455.648,9.99532e-16
455.748,1.16835e-15
455.848,1.36514e-15
455.948,1.59443e-15
456.048,1.86149e-15
456.148,2.17241e-15
456.248,2.53425e-15
456.348,2.95518e-15
456.448,3.44464e-15
456.548,4.01357e-15
456.648,4.67459e-15
456.748,5.4423e-15
456.848,6.33356e-15
456.948,7.36784e-15
457.048,8.56758e-15
457.148,9.95869e-15
457.248,1.15711e-14
457.348,1.34391e-14
457.448,1.56025e-14
457.548,1.81068e-14
457.648,2.10048e-14
457.748,2.43568e-14
457.848,2.82325e-14
457.948,3.27117e-14
458.048,3.78865e-14
458.148,4.38623e-14
458.248,5.07604e-14
458.348,5.87198e-14
458.448,6.79002e-14
458.548,7.84844e-14
458.648,9.06821e-14
458.748,1.04734e-13
458.848,1.20914e-13
458.948,1.39539e-13
459.048,1.60968e-13
459.148,1.85613e-13
459.248,2.13947e-13
459.348,2.46506e-13
459.448,2.83907e-13
459.548,3.26853e-13
459.648,3.76143e-13
459.748,4.32694e-13
459.848,4.97548e-13
459.948,5.71894e-13
460.048,6.57085e-13
460.148,7.54666e-13
460.248,8.66391e-13
460.348,9.94258e-13
460.448,1.14054e-12
460.548,1.30782e-12
460.648,1.49904e-12
460.748,1.71753e-12
460.848,1.96707e-12
460.948,2.25197e-12
461.048,2.57711e-12
461.148,2.94801e-12
461.248,3.37094e-12
461.348,3.853e-12
461.448,4.40223e-12
461.548,5.02775e-12
461.648,5.73986e-12
461.748,6.5502e-12
461.848,7.47195e-12
461.948,8.52001e-12
462.048,9.71118e-12
462.148,1.10645e-11
462.248,1.26013e-11
462.348,1.43459e-11
462.448,1.63254e-11
462.548,1.85707e-11
462.648,2.11163e-11
462.748,2.40012e-11
462.848,2.72694e-11
462.948,3.09702e-11
463.048,3.51592e-11
463.148,3.98989e-11
463.248,4.52594e-11
463.348,5.13195e-11
463.448,5.81678e-11
463.548,6.59036e-11
463.648,7.46383e-11
463.748,8.44969e-11
463.848,9.56194e-11
463.948,1.08163e-10
464.048,1.22302e-10
464.148,1.38235e-10
464.248,1.56182e-10
464.348,1.76387e-10
464.448,1.99127e-10
464.548,2.24708e-10
464.648,2.53474e-10
464.748,2.85809e-10
464.848,3.2214e-10
464.948,3.62943e-10
465.048,4.08751e-10
465.148,4.60157e-10
465.248,5.17821e-10
465.348,5.82477e-10
465.448,6.54945e-10
465.548,7.36134e-10
465.648,8.27056e-10
465.748,9.28837e-10
465.848,1.04273e-09
465.948,1.17011e-09
466.048,1.31254e-09
466.148,1.47171e-09
466.248,1.64952e-09
466.348,1.84807e-09
466.448,2.0697e-09
466.548,2.31698e-09
466.648,2.59277e-09
466.748,2.90022e-09
466.848,3.24284e-09
466.948,3.62448e-09
467.048,4.04941e-09
467.148,4.52235e-09
467.248,5.04851e-09
467.348,5.63363e-09
467.448,6.28405e-09
467.548,7.00676e-09
467.648,7.80947e-09
467.748,8.70065e-09
467.848,9.68965e-09
467.948,1.07868e-08
468.048,1.20033e-08
468.148,1.33517e-08
468.248,1.48456e-08
468.348,1.65001e-08
468.448,1.83316e-08
468.548,2.03582e-08
468.648,2.25999e-08
468.748,2.50784e-08
468.848,2.78176e-08
468.948,3.08436e-08
469.048,3.41851e-08
469.148,3.78735e-08
469.248,4.1943e-08
469.348,4.64313e-08
469.448,5.13792e-08
469.548,5.68317e-08
469.648,6.28378e-08
469.748,6.94507e-08
469.848,7.67289e-08
469.948,8.47359e-08
470.048,9.3541e-08
470.148,1.0322e-07
470.248,1.13855e-07
470.348,1.25535e-07
470.448,1.38358e-07
470.548,1.5243e-07
470.648,1.67866e-07
470.748,1.84791e-07
470.848,2.03342e-07
470.948,2.23665e-07
471.048,2.45921e-07
471.148,2.70283e-07
471.248,2.9694e-07
471.348,3.26096e-07
471.448,3.57971e-07
471.548,3.92805e-07
471.648,4.30857e-07
471.748,4.72405e-07
471.848,5.17752e-07
471.948,5.67226e-07
472.048,6.21179e-07
472.148,6.79991e-07
472.248,7.44074e-07
472.348,8.13871e-07
472.448,8.89859e-07
472.548,9.72552e-07
472.648,1.06251e-06
472.748,1.16031e-06
472.848,1.26662e-06
472.948,1.38211e-06
473.048,1.50753e-06
473.148,1.64367e-06
473.248,1.7914e-06
473.348,1.95161e-06
473.448,2.12531e-06
473.548,2.31354e-06
473.648,2.51743e-06
473.748,2.7382e-06
473.848,2.97713e-06
473.948,3.23563e-06
474.048,3.51515e-06
474.148,3.8173e-06
474.248,4.14377e-06
474.348,4.49635e-06
474.448,4.87698e-06
474.548,5.28772e-06
474.648,5.73076e-06
474.748,6.20844e-06
474.848,6.72324e-06
474.948,7.27782e-06
475.048,7.875e-06
475.148,8.51776e-06
475.248,9.20931e-06
475.348,9.95302e-06
475.448,1.07525e-05
475.548,1.16115e-05
475.648,1.25342e-05
475.748,1.35247e-05
475.848,1.45877e-05
475.948,1.5728e-05
476.048,1.69506e-05
476.148,1.82609e-05
476.248,1.96647e-05
476.348,2.11679e-05
476.448,2.27769e-05
476.548,2.44984e-05
476.648,2.63395e-05
476.748,2.83076e-05
476.848,3.04106e-05
476.948,3.26567e-05
477.048,3.50548e-05
477.148,3.76139e-05
477.248,4.03437e-05
477.348,4.32542e-05
477.448,4.63562e-05
477.548,4.96609e-05
477.648,5.31798e-05
477.748,5.69252e-05
477.848,6.09102e-05
477.948,6.51479e-05
478.048,6.96527e-05
478.148,7.44392e-05
478.248,7.95228e-05
478.348,8.49196e-05
478.448,9.06463e-05
478.548,9.67206e-05
478.648,0.000103161
478.748,0.000109985
478.848,0.000117215
478.948,0.00012487
479.048,0.000132971
479.148,0.000141541
479.248,0.000150604
479.348,0.000160183
479.448,0.000170302
479.548,0.000180989
479.648,0.000192269
479.748,0.000204171
479.848,0.000216723
479.948,0.000229954
480.048,0.000243896
480.148,0.000258579
480.248,0.000274037
480.348,0.000290303
480.448,0.000307411
480.548,0.000325397
480.648,0.000344298
480.748,0.000364151
480.848,0.000384994
480.948,0.000406868
481.048,0.000429813
481.148,0.00045387
481.248,0.000479082
481.348,0.000505493
481.448,0.000533146
481.548,0.000562086
481.648,0.000592361
481.748,0.000624017
481.848,0.000657101
481.948,0.000691663
482.048,0.000727752
482.148,0.000765417
482.248,0.00080471
482.348,0.000845682
482.448,0.000888384
482.548,0.000932869
482.648,0.00097919
482.748,0.0010274
482.848,0.00107755
482.948,0.0011297
483.048,0.0011839
483.148,0.0012402
483.248,0.00129866
483.348,0.00135934
483.448,0.00142228
483.548,0.00148753
483.648,0.00155516
483.748,0.00162522
483.848,0.00169775
483.948,0.00177281
484.048,0.00185044
484.148,0.00193071
484.248,0.00201364
484.348,0.00209931
484.448,0.00218774
484.548,0.00227898
484.648,0.00237308
484.748,0.00247008
484.848,0.00257002
484.948,0.00267292
485.048,0.00277884
485.148,0.0028878
485.248,0.00299983
485.348,0.00311496
485.448,0.00323322
485.548,0.00335462
485.648,0.00347919
485.748,0.00360694
485.848,0.00373789
485.948,0.00387204
486.048,0.00400941
486.148,0.00414998
486.248,0.00429377
486.348,0.00444076
486.448,0.00459095
486.548,0.00474432
486.648,0.00490085
486.748,0.00506053
486.848,0.00522331
486.948,0.00538918
487.048,0.00555808
487.148,0.00572999
487.248,0.00590486
487.348,0.00608262
487.448,0.00626324
487.548,0.00644663
487.648,0.00663275
487.748,0.0068215
487.848,0.00701283
487.948,0.00720663
488.048,0.00740283
488.148,0.00760134
488.248,0.00780204
488.348,0.00800484
488.448,0.00820962
488.548,0.00841628
488.648,0.00862469
488.748,0.00883472
488.848,0.00904625
488.948,0.00925914
489.048,0.00947326
489.148,0.00968844
489.248,0.00990455
489.348,0.0101214
489.448,0.0103389
489.548,0.0105569
489.648,0.0107751
489.748,0.0109934
489.848,0.0112117
489.948,0.0114298
490.048,0.0116474
490.148,0.0118644
490.248,0.0120806
490.348,0.0122959
490.448,0.01251
490.548,0.0127227
490.648,0.0129339
490.748,0.0131433
490.848,0.0133507
490.948,0.013556
491.048,0.013759
491.148,0.0139594
491.248,0.0141571
491.348,0.0143518
491.448,0.0145434
491.548,0.0147316
491.648,0.0149163
491.748,0.0150973
491.848,0.0152744
491.948,0.0154474
492.048,0.0156161
492.148,0.0157803
492.248,0.0159399
492.348,0.0160946
492.448,0.0162444
492.548,0.0163889
492.648,0.0165282
492.748,0.016662
492.848,0.0167901
492.948,0.0169125
493.048,0.0170289
493.148,0.0171393
493.248,0.0172435
493.348,0.0173414
493.448,0.0174328
493.548,0.0175178
493.648,0.0175961
493.748,0.0176677
493.848,0.0177325
493.948,0.0177904
494.048,0.0178414
494.148,0.0178853
494.248,0.0179222
494.348,0.017952
494.448,0.0179747
494.548,0.0179902
494.648,0.0179985
494.748,0.0179996
494.848,0.0179935
494.948,0.0179802
495.048,0.0179597
495.148,0.0179321
495.248,0.0178973
495.348,0.0178555
495.448,0.0178067
495.548,0.0177509
495.648,0.0176882
495.748,0.0176186
495.848,0.0175424
495.948,0.0174594
496.048,0.0173699
496.148,0.017274
496.248,0.0171717
496.348,0.0170632
496.448,0.0169486
496.548,0.016828
496.648,0.0167016
496.748,0.0165696
496.848,0.016432
496.948,0.016289
497.048,0.0161408
497.148,0.0159876
497.248,0.0158294
497.348,0.0156666
497.448,0.0154993
497.548,0.0153276
497.648,0.0151517
497.748,0.0149719
497.848,0.0147883
497.948,0.0146011
498.048,0.0144105
498.148,0.0142167
498.248,0.01402
498.348,0.0138204
498.448,0.0136181
498.548,0.0134135
498.648,0.0132067
498.748,0.0129979
498.848,0.0127872
498.948,0.012575
499.048,0.0123613
499.148,0.0121464
499.248,0.0119304
499.348,0.0117136
499.448,0.0114962
499.548,0.0112782
499.648,0.01106
499.748,0.0108417
499.848,0.0106234
499.948,0.0104053
500.048,0.0101877
500.148,0.00997059
500.248,0.00975423
500.348,0.00953874
500.448,0.00932429
500.548,0.00911101
500.648,0.00889905
500.748,0.00868854
500.848,0.00847963
500.948,0.00827242
501.048,0.00806705
501.148,0.00786364
501.248,0.00766229
501.348,0.0074631
501.448,0.00726619
501.548,0.00707165
501.648,0.00687956
501.748,0.00669001
501.848,0.00650308
501.948,0.00631885
502.048,0.00613738
502.148,0.00595874
502.248,0.00578298
502.348,0.00561017
502.448,0.00544034
502.548,0.00527355
502.648,0.00510982
502.748,0.00494919
502.848,0.0047917
502.948,0.00463737
503.048,0.00448621
503.148,0.00433824
503.248,0.00419347
503.348,0.00405192
503.448,0.00391358
503.548,0.00377844
503.648,0.00364652
503.748,0.0035178
503.848,0.00339226
503.948,0.00326989
504.048,0.00315068
504.148,0.0030346
504.248,0.00292162
504.348,0.00281173
504.448,0.00270489
504.548,0.00260107
504.648,0.00250023
504.748,0.00240234
504.848,0.00230736
504.948,0.00221525
505.048,0.00212597
505.148,0.00203947
505.248,0.0019557
505.348,0.00187463
505.448,0.0017962
505.548,0.00172036
505.648,0.00164706
505.748,0.00157626
505.848,0.0015079
505.948,0.00144192
506.048,0.00137828
506.148,0.00131692
506.248,0.00125779
506.348,0.00120084
506.448,0.001146
506.548,0.00109324
506.648,0.00104248
506.748,0.000993683
506.848,0.000946792
506.948,0.000901753
507.048,0.000858513
507.148,0.000817019
507.248,0.00077722
507.348,0.000739064
507.448,0.0007025
507.548,0.000667478
507.648,0.000633948
507.748,0.000601862
507.848,0.000571171
507.948,0.000541829
508.048,0.000513788
508.148,0.000487004
508.248,0.000461431
508.348,0.000437027
508.448,0.000413747
508.548,0.000391551
508.648,0.000370398
508.748,0.000350247
508.848,0.00033106
508.948,0.000312799
509.048,0.000295427
509.148,0.000278908
509.248,0.000263208
509.348,0.000248292
509.448,0.000234127
509.548,0.000220683
509.648,0.000207927
509.748,0.00019583
509.848,0.000184363
509.948,0.000173499
510.048,0.000163209
510.148,0.000153468
510.248,0.000144251
510.348,0.000135533
510.448,0.000127291
510.548,0.000119502
510.648,0.000112145
510.748,0.000105199
510.848,9.86441e-05
510.948,9.24603e-05
511.048,8.66295e-05
511.148,8.11339e-05
511.248,7.59566e-05
511.348,7.10812e-05
511.448,6.64922e-05
511.548,6.21745e-05
511.648,5.8114e-05
511.748,5.42969e-05
511.848,5.07102e-05
511.948,4.73416e-05
512.048,4.4179e-05
512.148,4.12112e-05
512.248,3.84274e-05
512.348,3.58174e-05
512.448,3.33712e-05
512.548,3.10797e-05
512.648,2.89339e-05
512.748,2.69256e-05
512.848,2.50466e-05
512.948,2.32894e-05
513.048,2.16468e-05
513.148,2.01121e-05
513.248,1.86787e-05
513.348,1.73405e-05
513.448,1.60917e-05
513.548,1.49269e-05
513.648,1.38409e-05
513.748,1.28287e-05
513.848,1.18858e-05
513.948,1.10078e-05
514.048,1.01906e-05
514.148,9.43032e-06
514.248,8.72324e-06
514.348,8.06595e-06
514.448,7.45521e-06
514.548,6.88795e-06
514.648,6.36131e-06
514.748,5.87259e-06
514.848,5.41925e-06
514.948,4.9989e-06
515.048,4.60931e-06
515.148,4.24839e-06
515.248,3.91416e-06
515.348,3.60478e-06
515.448,3.31853e-06
515.548,3.05379e-06
515.648,2.80904e-06
515.748,2.58288e-06
515.848,2.37398e-06
515.948,2.1811e-06
516.048,2.00308e-06
516.148,1.83887e-06
516.248,1.68744e-06
516.348,1.54786e-06
516.448,1.41926e-06
516.548,1.30082e-06
516.648,1.19179e-06
516.748,1.09146e-06
516.848,9.99176e-07
516.948,9.14331e-07
517.048,8.36355e-07