File: inn/kurimoto_2004/500C/raman/curve_total_fit.dat
392.948,0.0633494
393.048,0.0634473
393.148,0.0635462
393.248,0.0636461
393.348,0.0637472
393.448,0.0638494
393.548,0.0639527
393.648,0.0640571
393.748,0.0641627
393.848,0.0642695
393.948,0.0643775
394.048,0.0644867
394.148,0.0645971
394.248,0.0647088
394.348,0.0648218
394.448,0.064936
394.548,0.0650516
394.648,0.0651685
394.748,0.0652868
394.848,0.0654065
394.948,0.0655276
395.048,0.0656502
395.148,0.0657741
395.248,0.0658996
395.348,0.0660266
395.448,0.0661551
395.548,0.0662852
395.648,0.0664168
395.748,0.0665501
395.848,0.066685
395.948,0.0668216
396.048,0.0669599
396.148,0.0671
396.248,0.0672418
396.348,0.0673854
396.448,0.0675308
396.548,0.067678
396.648,0.0678272
396.748,0.0679783
396.848,0.0681314
396.948,0.0682865
397.048,0.0684436
397.148,0.0686027
397.248,0.068764
397.348,0.0689275
397.448,0.0690931
397.548,0.069261
397.648,0.0694312
397.748,0.0696037
397.848,0.0697785
397.948,0.0699558
398.048,0.0701355
398.148,0.0703178
398.248,0.0705026
398.348,0.07069
398.448,0.0708801
398.548,0.0710729
398.648,0.0712685
398.748,0.0714669
398.848,0.0716681
398.948,0.0718724
399.048,0.0720796
399.148,0.0722899
399.248,0.0725034
399.348,0.07272
399.448,0.0729399
399.548,0.0731632
399.648,0.0733898
399.748,0.0736199
399.848,0.0738536
399.948,0.0740909
400.048,0.074332
400.148,0.0745768
400.248,0.0748255
400.348,0.0750781
400.448,0.0753349
400.548,0.0755957
400.648,0.0758608
400.748,0.0761302
400.848,0.0764041
400.948,0.0766824
401.048,0.0769655
401.148,0.0772532
401.248,0.0775458
401.348,0.0778434
401.448,0.0781461
401.548,0.078454
401.648,0.0787672
401.748,0.0790859
401.848,0.0794102
401.948,0.0797402
402.048,0.0800761
402.148,0.080418
402.248,0.080766
402.348,0.0811204
402.448,0.0814813
402.548,0.0818488
402.648,0.0822231
402.748,0.0826045
402.848,0.0829929
402.948,0.0833888
403.048,0.0837922
403.148,0.0842033
403.248,0.0846224
403.348,0.0850496
403.448,0.0854853
403.548,0.0859295
403.648,0.0863826
403.748,0.0868448
403.848,0.0873163
403.948,0.0877974
404.048,0.0882883
404.148,0.0887894
404.248,0.089301
404.348,0.0898232
404.448,0.0903565
404.548,0.0909012
404.648,0.0914575
404.748,0.0920258
404.848,0.0926066
404.948,0.0932
405.048,0.0938066
405.148,0.0944268
405.248,0.0950608
405.348,0.0957092
405.448,0.0963725
405.548,0.097051
405.648,0.0977452
405.748,0.0984556
405.848,0.0991829
405.948,0.0999274
406.048,0.10069
406.148,0.10147
406.248,0.10227
406.348,0.10309
406.448,0.103929
406.548,0.10479
406.648,0.105673
406.748,0.106578
406.848,0.107506
406.948,0.108458
407.048,0.109434
407.148,0.110437
407.248,0.111466
407.348,0.112523
407.448,0.113608
407.548,0.114723
407.648,0.115869
407.748,0.117046
407.848,0.118256
407.948,0.119501
408.048,0.120781
408.148,0.122097
408.248,0.123453
408.348,0.124847
408.448,0.126283
408.548,0.127762
408.648,0.129286
408.748,0.130856
408.848,0.132474
408.948,0.134142
409.048,0.135863
409.148,0.137638
409.248,0.13947
409.348,0.141361
409.448,0.143313
409.548,0.14533
409.648,0.147413
409.748,0.149567
409.848,0.151794
409.948,0.154097
410.048,0.156479
410.148,0.158945
410.248,0.161497
410.348,0.164141
410.448,0.16688
410.548,0.169719
410.648,0.172662
410.748,0.175714
410.848,0.178881
410.948,0.182167
411.048,0.18558
411.148,0.189125
411.248,0.192808
411.348,0.196637
411.448,0.200618
411.548,0.20476
411.648,0.20907
411.748,0.213558
411.848,0.218233
411.948,0.223103
412.048,0.22818
412.148,0.233474
412.248,0.238996
412.348,0.24476
412.448,0.250777
412.548,0.257061
412.648,0.263627
412.748,0.270489
412.848,0.277664
412.948,0.285169
413.048,0.293021
413.148,0.301239
413.248,0.309843
413.348,0.318853
413.448,0.328291
413.548,0.338179
413.648,0.34854
413.748,0.359399
413.848,0.370782
413.948,0.382713
414.048,0.39522
414.148,0.408328
414.248,0.422065
414.348,0.436458
414.448,0.451532
414.548,0.467314
414.648,0.483827
414.748,0.501092
414.848,0.519128
414.948,0.537951
415.048,0.55757
415.148,0.577987
415.248,0.5992
415.348,0.621195
415.448,0.643947
415.548,0.667419
415.648,0.691557
415.748,0.716292
415.848,0.741534
415.948,0.767171
416.048,0.793069
416.148,0.819069
416.248,0.844985
416.348,0.870607
416.448,0.895699
416.548,0.920004
416.648,0.943244
416.748,0.96513
416.848,0.985365
416.948,1.00365
417.048,1.01971
417.148,1.03326
417.248,1.04409
417.348,1.05198
417.448,1.05681
417.548,1.05847
417.648,1.05693
417.748,1.05223
417.848,1.04445
417.948,1.03375
418.048,1.0203
418.148,1.00435
418.248,0.986167
418.348,0.966026
418.448,0.944228
418.548,0.921069
418.648,0.896839
418.748,0.871817
418.848,0.846259
418.948,0.820403
419.048,0.794458
419.148,0.768611
419.248,0.743023
419.348,0.717827
419.448,0.693135
419.548,0.669039
419.648,0.645608
419.748,0.622895
419.848,0.600939
419.948,0.579765
420.048,0.559385
420.148,0.539805
420.248,0.52102
420.348,0.503023
420.448,0.485796
420.548,0.469323
420.648,0.453581
420.748,0.438547
420.848,0.424195
420.948,0.410499
421.048,0.397433
421.148,0.384969
421.248,0.373081
421.348,0.361743
421.448,0.350927
421.548,0.34061
421.648,0.330768
421.748,0.321376
421.848,0.312412
421.948,0.303855
422.048,0.295684
422.148,0.287879
422.248,0.280422
422.348,0.273295
422.448,0.266481
422.548,0.259964
422.648,0.253729
422.748,0.247761
422.848,0.242047
422.948,0.236575
423.048,0.231331
423.148,0.226304
423.248,0.221484
423.348,0.216861
423.448,0.212424
423.548,0.208164
423.648,0.204073
423.748,0.200143
423.848,0.196366
423.948,0.192734
424.048,0.189241
424.148,0.185881
424.248,0.182646
424.348,0.179531
424.448,0.176531
424.548,0.17364
424.648,0.170854
424.748,0.168167
424.848,0.165576
424.948,0.163075
425.048,0.160662
425.148,0.158332
425.248,0.156082
425.348,0.153908
425.448,0.151807
425.548,0.149776
425.648,0.147812
425.748,0.145912
425.848,0.144074
425.948,0.142295
426.048,0.140572
426.148,0.138904
426.248,0.137289
426.348,0.135723
426.448,0.134206
426.548,0.132735
426.648,0.131309
426.748,0.129926
426.848,0.128584
426.948,0.127282
427.048,0.126017
427.148,0.12479
427.248,0.123598
427.348,0.122441
427.448,0.121316
427.548,0.120223
427.648,0.119161
427.748,0.118128
427.848,0.117124
427.948,0.116148
428.048,0.115198
428.148,0.114273
428.248,0.113374
428.348,0.112498
428.448,0.111646
428.548,0.110815
428.648,0.110007
428.748,0.10922
428.848,0.108452
428.948,0.107705
429.048,0.106976
429.148,0.106266
429.248,0.105574
429.348,0.104899
429.448,0.10424
429.548,0.103598
429.648,0.102971
429.748,0.10236
429.848,0.101764
429.948,0.101181
430.048,0.100613
430.148,0.100058
430.248,0.0995164
430.348,0.0989873
430.448,0.0984705
430.548,0.0979658
430.648,0.0974726
430.748,0.0969908
430.848,0.0965199
430.948,0.0960597
431.048,0.0956099
431.148,0.0951702
431.248,0.0947403
431.348,0.0943199
431.448,0.0939088
431.548,0.0935067
431.648,0.0931135
431.748,0.0927287
431.848,0.0923523
431.948,0.091984
432.048,0.0916236
432.148,0.0912709
432.248,0.0909257
432.348,0.0905877
432.448,0.0902569
432.548,0.089933
432.648,0.0896159
432.748,0.0893053
432.848,0.0890012
432.948,0.0887033
433.048,0.0884115
433.148,0.0881257
433.248,0.0878456
433.348,0.0875713
433.448,0.0873025
433.548,0.087039
433.648,0.0867809
433.748,0.0865278
433.848,0.0862798
433.948,0.0860367
434.048,0.0857984
434.148,0.0855648
434.248,0.0853357
434.348,0.0851111
434.448,0.0848908
434.548,0.0846748
434.648,0.084463
434.748,0.0842553
434.848,0.0840515
434.948,0.0838516
435.048,0.0836555
435.148,0.0834631
435.248,0.0832744
435.348,0.0830892
435.448,0.0829075
435.548,0.0827292
435.648,0.0825543
435.748,0.0823826
435.848,0.0822141
435.948,0.0820487
436.048,0.0818863
436.148,0.081727
436.248,0.0815705
436.348,0.081417
436.448,0.0812662
436.548,0.0811182
436.648,0.0809729
436.748,0.0808303
436.848,0.0806902
436.948,0.0805526
437.048,0.0804175
437.148,0.0802849
437.248,0.0801546
437.348,0.0800267
437.448,0.079901
437.548,0.0797776
437.648,0.0796564
437.748,0.0795373
437.848,0.0794203
437.948,0.0793054
438.048,0.0791926
438.148,0.0790817
438.248,0.0789728
438.348,0.0788657
438.448,0.0787606
438.548,0.0786573
438.648,0.0785558
438.748,0.0784561
438.848,0.0783581
438.948,0.0782618
439.048,0.0781672
439.148,0.0780743
439.248,0.0779829
439.348,0.0778931
439.448,0.0778049
439.548,0.0777182
439.648,0.077633
439.748,0.0775493
439.848,0.077467
439.948,0.0773861
440.048,0.0773066
440.148,0.0772285
440.248,0.0771517
440.348,0.0770762
440.448,0.077002
440.548,0.0769291
440.648,0.0768574
440.748,0.076787
440.848,0.0767177
440.948,0.0766497
441.048,0.0765828
441.148,0.076517
441.248,0.0764523
441.348,0.0763888
441.448,0.0763263
441.548,0.0762649
441.648,0.0762045
441.748,0.0761452
441.848,0.0760869
441.948,0.0760295
442.048,0.0759731
442.148,0.0759177
442.248,0.0758632
442.348,0.0758097
442.448,0.075757
442.548,0.0757053
442.648,0.0756544
442.748,0.0756044
442.848,0.0755552
442.948,0.0755068
443.048,0.0754593
443.148,0.0754126
443.248,0.0753667
443.348,0.0753215
443.448,0.0752771
443.548,0.0752335
443.648,0.0751906
443.748,0.0751484
443.848,0.075107
443.948,0.0750662
444.048,0.0750262
444.148,0.0749868
444.248,0.0749481
444.348,0.0749101
444.448,0.0748726
444.548,0.0748359
444.648,0.0747997
444.748,0.0747642
444.848,0.0747293
444.948,0.074695
445.048,0.0746612
445.148,0.074628
445.248,0.0745954
445.348,0.0745634
445.448,0.0745319
445.548,0.0745009
445.648,0.0744705
445.748,0.0744406
445.848,0.0744112
445.948,0.0743823
446.048,0.0743539
446.148,0.074326
446.248,0.0742985
446.348,0.0742716
446.448,0.0742451
446.548,0.074219
446.648,0.0741934
446.748,0.0741683
446.848,0.0741436
446.948,0.0741193
447.048,0.0740954
447.148,0.0740719
447.248,0.0740489
447.348,0.0740262
447.448,0.0740039
447.548,0.0739821
447.648,0.0739606
447.748,0.0739394
447.848,0.0739187
447.948,0.0738983
448.048,0.0738782
448.148,0.0738585
448.248,0.0738392
448.348,0.0738201
448.448,0.0738015
448.548,0.0737831
448.648,0.0737651
448.748,0.0737473
448.848,0.0737299
448.948,0.0737128
449.048,0.073696
449.148,0.0736795
449.248,0.0736632
449.348,0.0736473
449.448,0.0736316
449.548,0.0736162
449.648,0.0736011
449.748,0.0735863
449.848,0.0735717
449.948,0.0735573
450.048,0.0735432
450.148,0.0735294
450.248,0.0735158
450.348,0.0735024
450.448,0.0734893
450.548,0.0734764
450.648,0.0734637
450.748,0.0734513
450.848,0.073439
450.948,0.073427
451.048,0.0734152
451.148,0.0734036
451.248,0.0733922
451.348,0.073381
451.448,0.07337
451.548,0.0733591
451.648,0.0733485
451.748,0.073338
451.848,0.0733278
451.948,0.0733177
452.048,0.0733078
452.148,0.073298
452.248,0.0732884
452.348,0.073279
452.448,0.0732697
452.548,0.0732606
452.648,0.0732517
452.748,0.0732429
452.848,0.0732342
452.948,0.0732257
453.048,0.0732174
453.148,0.0732091
453.248,0.073201
453.348,0.0731931
453.448,0.0731852
453.548,0.0731775
453.648,0.07317
453.748,0.0731625
453.848,0.0731552
453.948,0.0731479
454.048,0.0731408
454.148,0.0731338
454.248,0.073127
454.348,0.0731202
454.448,0.0731135
454.548,0.0731069
454.648,0.0731004
454.748,0.073094
454.848,0.0730878
454.948,0.0730816
455.048,0.0730754
455.148,0.0730694
455.248,0.0730635
455.348,0.0730576
455.448,0.0730518
455.548,0.0730461
455.648,0.0730405
455.748,0.073035
455.848,0.0730295
455.948,0.0730241
456.048,0.0730187
456.148,0.0730134
456.248,0.0730082
456.348,0.0730031
456.448,0.072998
456.548,0.0729929
456.648,0.072988
456.748,0.072983
456.848,0.0729781
456.948,0.0729733
457.048,0.0729685
457.148,0.0729638
457.248,0.0729591
457.348,0.0729544
457.448,0.0729498
457.548,0.0729453
457.648,0.0729407
457.748,0.0729362
457.848,0.0729318
457.948,0.0729273
458.048,0.0729229
458.148,0.0729186
458.248,0.0729142
458.348,0.0729099
458.448,0.0729056
458.548,0.0729013
458.648,0.0728971
458.748,0.0728928
458.848,0.0728886
458.948,0.0728844
459.048,0.0728802
459.148,0.0728761
459.248,0.0728719
459.348,0.0728678
459.448,0.0728636
459.548,0.0728595
459.648,0.0728554
459.748,0.0728512
459.848,0.0728471
459.948,0.072843
460.048,0.0728389
460.148,0.0728348
460.248,0.0728307
460.348,0.0728266
460.448,0.0728224
460.548,0.0728183
460.648,0.0728142
460.748,0.07281
460.848,0.0728059
460.948,0.0728017
461.048,0.0727976
461.148,0.0727934
461.248,0.0727892
461.348,0.072785
461.448,0.0727808
461.548,0.0727765
461.648,0.0727723
461.748,0.072768
461.848,0.0727637
461.948,0.0727594
462.048,0.072755
462.148,0.0727507
462.248,0.0727463
462.348,0.0727419
462.448,0.0727374
462.548,0.072733
462.648,0.0727285
462.748,0.072724
462.848,0.0727194
462.948,0.0727148
463.048,0.0727102
463.148,0.0727056
463.248,0.0727009
463.348,0.0726962
463.448,0.0726914
463.548,0.0726866
463.648,0.0726818
463.748,0.0726769
463.848,0.072672
463.948,0.0726671
464.048,0.0726621
464.148,0.0726571
464.248,0.072652
464.348,0.0726469
464.448,0.0726418
464.548,0.0726366
464.648,0.0726313
464.748,0.072626
464.848,0.0726207
464.948,0.0726153
465.048,0.0726099
465.148,0.0726044
465.248,0.0725989
465.348,0.0725933
465.448,0.0725876
465.548,0.072582
465.648,0.0725762
465.748,0.0725704
465.848,0.0725646
465.948,0.0725587
466.048,0.0725527
466.148,0.0725467
466.248,0.0725406
466.348,0.0725345
466.448,0.0725283
466.548,0.0725221
466.648,0.0725158
466.748,0.0725094
466.848,0.072503
466.948,0.0724965
467.048,0.07249
467.148,0.0724834
467.248,0.0724767
467.348,0.07247
467.448,0.0724632
467.548,0.0724563
467.648,0.0724494
467.748,0.0724424
467.848,0.0724354
467.948,0.0724282
468.048,0.0724211
468.148,0.0724138
468.248,0.0724065
468.348,0.0723991
468.448,0.0723916
468.548,0.0723841
468.648,0.0723765
468.748,0.0723688
468.848,0.0723611
468.948,0.0723533
469.048,0.0723454
469.148,0.0723375
469.248,0.0723294
469.348,0.0723213
469.448,0.0723132
469.548,0.0723049
469.648,0.0722966
469.748,0.0722882
469.848,0.0722798
469.948,0.0722712
470.048,0.0722626
470.148,0.0722539
470.248,0.0722452
470.348,0.0722363
470.448,0.0722274
470.548,0.0722184
470.648,0.0722093
470.748,0.0722002
470.848,0.072191
470.948,0.0721817
471.048,0.0721723
471.148,0.0721629
471.248,0.0721533
471.348,0.0721437
471.448,0.072134
471.548,0.0721243
471.648,0.0721144
471.748,0.0721045
471.848,0.0720945
471.948,0.0720844
472.048,0.0720743
472.148,0.0720641
472.248,0.0720538
472.348,0.0720434
472.448,0.0720329
472.548,0.0720224
472.648,0.0720118
472.748,0.0720011
472.848,0.0719903
472.948,0.0719795
473.048,0.0719686
473.148,0.0719576
473.248,0.0719465
473.348,0.0719354
473.448,0.0719242
473.548,0.0719129
473.648,0.0719015
473.748,0.0718901
473.848,0.0718786
473.948,0.0718671
474.048,0.0718555
474.148,0.0718438
474.248,0.0718321
474.348,0.0718203
474.448,0.0718084
474.548,0.0717965
474.648,0.0717845
474.748,0.0717725
474.848,0.0717604
474.948,0.0717483
475.048,0.0717361
475.148,0.0717239
475.248,0.0717116
475.348,0.0716994
475.448,0.071687
475.548,0.0716747
475.648,0.0716623
475.748,0.0716499
475.848,0.0716375
475.948,0.0716251
476.048,0.0716127
476.148,0.0716002
476.248,0.0715878
476.348,0.0715754
476.448,0.071563
476.548,0.0715506
476.648,0.0715383
476.748,0.071526
476.848,0.0715137
476.948,0.0715015
477.048,0.0714894
477.148,0.0714773
477.248,0.0714653
477.348,0.0714534
477.448,0.0714416
477.548,0.0714299
477.648,0.0714183
477.748,0.0714069
477.848,0.0713956
477.948,0.0713845
478.048,0.0713736
478.148,0.0713629
478.248,0.0713523
478.348,0.071342
478.448,0.0713319
478.548,0.0713221
478.648,0.0713126
478.748,0.0713033
478.848,0.0712944
478.948,0.0712858
479.048,0.0712776
479.148,0.0712697
479.248,0.0712623
479.348,0.0712553
479.448,0.0712487
479.548,0.0712426
479.648,0.071237
479.748,0.0712319
479.848,0.0712274
479.948,0.0712235
480.048,0.0712202
480.148,0.0712176
480.248,0.0712157
480.348,0.0712144
480.448,0.071214
480.548,0.0712143
480.648,0.0712154
480.748,0.0712174
480.848,0.0712203
480.948,0.0712242
481.048,0.071229
481.148,0.0712348
481.248,0.0712418
481.348,0.0712498
481.448,0.071259
481.548,0.0712694
481.648,0.071281
481.748,0.0712939
481.848,0.0713082
481.948,0.0713238
482.048,0.0713409
482.148,0.0713595
482.248,0.0713796
482.348,0.0714014
482.448,0.0714247
482.548,0.0714498
482.648,0.0714766
482.748,0.0715052
482.848,0.0715357
482.948,0.071568
483.048,0.0716024
483.148,0.0716387
483.248,0.0716772
483.348,0.0717177
483.448,0.0717605
483.548,0.0718054
483.648,0.0718527
483.748,0.0719023
483.848,0.0719543
483.948,0.0720087
484.048,0.0720657
484.148,0.0721251
484.248,0.0721872
484.348,0.0722519
484.448,0.0723193
484.548,0.0723894
484.648,0.0724623
484.748,0.072538
484.848,0.0726166
484.948,0.072698
485.048,0.0727824
485.148,0.0728698
485.248,0.0729601
485.348,0.0730534
485.448,0.0731498
485.548,0.0732493
485.648,0.0733518
485.748,0.0734575
485.848,0.0735662
485.948,0.0736781
486.048,0.0737931
486.148,0.0739113
486.248,0.0740326
486.348,0.074157
486.448,0.0742845
486.548,0.0744151
486.648,0.0745488
486.748,0.0746856
486.848,0.0748254
486.948,0.0749682
487.048,0.075114
487.148,0.0752627
487.248,0.0754143
487.348,0.0755687
487.448,0.0757258
487.548,0.0758857
487.648,0.0760482
487.748,0.0762133
487.848,0.0763809
487.948,0.0765509
488.048,0.0767232
488.148,0.0768977
488.248,0.0770744
488.348,0.077253
488.448,0.0774336
488.548,0.077616
488.648,0.0778001
488.748,0.0779857
488.848,0.0781727
488.948,0.0783611
489.048,0.0785505
489.148,0.078741
489.248,0.0789324
489.348,0.0791244
489.448,0.079317
489.548,0.0795099
489.648,0.0797031
489.748,0.0798963
489.848,0.0800894
489.948,0.0802822
490.048,0.0804744
490.148,0.080666
490.248,0.0808568
490.348,0.0810465
490.448,0.081235
490.548,0.081422
490.648,0.0816074
490.748,0.081791
490.848,0.0819726
490.948,0.0821519
491.048,0.0823289
491.148,0.0825032
491.248,0.0826747
491.348,0.0828432
491.448,0.0830086
491.548,0.0831705
491.648,0.0833288
491.748,0.0834833
491.848,0.0836338
491.948,0.0837802
492.048,0.0839223
492.148,0.0840597
492.248,0.0841925
492.348,0.0843204
492.448,0.0844433
492.548,0.0845609
492.648,0.0846731
492.748,0.0847798
492.848,0.0848808
492.948,0.0849759
493.048,0.0850651
493.148,0.0851481
493.248,0.0852249
493.348,0.0852954
493.448,0.0853593
493.548,0.0854167
493.648,0.0854674
493.748,0.0855113
493.848,0.0855484
493.948,0.0855785
494.048,0.0856016
494.148,0.0856177
494.248,0.0856266
494.348,0.0856284
494.448,0.085623
494.548,0.0856104
494.648,0.0855905
494.748,0.0855633
494.848,0.085529
494.948,0.0854873
495.048,0.0854385
495.148,0.0853824
495.248,0.0853192
495.348,0.0852488
495.448,0.0851714
495.548,0.0850869
495.648,0.0849955
495.748,0.0848972
495.848,0.0847922
495.948,0.0846804
496.048,0.084562
496.148,0.0844371
496.248,0.0843058
496.348,0.0841683
496.448,0.0840246
496.548,0.0838749
496.648,0.0837193
496.748,0.083558
496.848,0.0833912
496.948,0.0832189
497.048,0.0830413
497.148,0.0828587
497.248,0.0826711
497.348,0.0824788
497.448,0.0822819
497.548,0.0820807
497.648,0.0818752
497.748,0.0816657
497.848,0.0814524
497.948,0.0812354
498.048,0.0810151
498.148,0.0807914
498.248,0.0805648
498.348,0.0803353
498.448,0.0801031
498.548,0.0798685
498.648,0.0796317
498.748,0.0793928
498.848,0.079152
498.948,0.0789096
499.048,0.0786657
499.148,0.0784206
499.248,0.0781744
499.348,0.0779273
499.448,0.0776795
499.548,0.0774312
499.648,0.0771826
499.748,0.0769338
499.848,0.0766851
499.948,0.0764365
500.048,0.0761884
500.148,0.0759407
500.248,0.0756937
500.348,0.0754476
500.448,0.0752025
500.548,0.0749585
500.648,0.0747159
500.748,0.0744746
500.848,0.0742349
500.948,0.0739969
501.048,0.0737607
501.148,0.0735264
501.248,0.0732941
501.348,0.073064
501.448,0.0728361
501.548,0.0726106
501.648,0.0723875
501.748,0.0721669
501.848,0.0719489
501.948,0.0717336
502.048,0.071521
502.148,0.0713112
502.248,0.0711043
502.348,0.0709003
502.448,0.0706993
502.548,0.0705012
502.648,0.0703062
502.748,0.0701143
502.848,0.0699255
502.948,0.0697399
503.048,0.0695574
503.148,0.069378
503.248,0.0692019
503.348,0.0690289
503.448,0.0688591
503.548,0.0686925
503.648,0.0685291
503.748,0.0683689
503.848,0.0682119
503.948,0.068058
504.048,0.0679072
504.148,0.0677596
504.248,0.067615
504.348,0.0674735
504.448,0.0673351
504.548,0.0671996
504.648,0.0670672
504.748,0.0669376
504.848,0.066811
504.948,0.0666872
505.048,0.0665662
505.148,0.066448
505.248,0.0663325
505.348,0.0662197
505.448,0.0661095
505.548,0.0660019
505.648,0.0658968
505.748,0.0657942
505.848,0.065694
505.948,0.0655963
506.048,0.0655008
506.148,0.0654076
506.248,0.0653167
506.348,0.0652279
506.448,0.0651412
506.548,0.0650565
506.648,0.0649739
506.748,0.0648932
506.848,0.0648145
506.948,0.0647375
507.048,0.0646624
507.148,0.064589
507.248,0.0645173
507.348,0.0644472
507.448,0.0643788
507.548,0.0643118
507.648,0.0642464
507.748,0.0641823
507.848,0.0641197
507.948,0.0640584
508.048,0.0639985
508.148,0.0639397
508.248,0.0638822
508.348,0.0638259
508.448,0.0637707
508.548,0.0637165
508.648,0.0636634
508.748,0.0636113
508.848,0.0635602
508.948,0.06351
509.048,0.0634607
509.148,0.0634122
509.248,0.0633646
509.348,0.0633178
509.448,0.0632717
509.548,0.0632263
509.648,0.0631816
509.748,0.0631376
509.848,0.0630942
509.948,0.0630514
510.048,0.0630092
510.148,0.0629676
510.248,0.0629265
510.348,0.0628859
510.448,0.0628458
510.548,0.0628061
510.648,0.0627669
510.748,0.0627281
510.848,0.0626896
510.948,0.0626516
511.048,0.062614
511.148,0.0625766
511.248,0.0625396
511.348,0.0625029
511.448,0.0624666
511.548,0.0624304
511.648,0.0623946
511.748,0.062359
511.848,0.0623237
511.948,0.0622886
512.048,0.0622537
512.148,0.062219
512.248,0.0621845
512.348,0.0621502
512.448,0.0621161
512.548,0.0620821
512.648,0.0620483
512.748,0.0620146
512.848,0.0619811
512.948,0.0619478
513.048,0.0619145
513.148,0.0618814
513.248,0.0618484
513.348,0.0618155
513.448,0.0617827
513.548,0.0617501
513.648,0.0617175
513.748,0.061685
513.848,0.0616526
513.948,0.0616203
514.048,0.061588
514.148,0.0615559
514.248,0.0615238
514.348,0.0614917
514.448,0.0614598
514.548,0.0614279
514.648,0.061396
514.748,0.0613643
514.848,0.0613325
514.948,0.0613009
515.048,0.0612693
515.148,0.0612377
515.248,0.0612062
515.348,0.0611747
515.448,0.0611433
515.548,0.0611119
515.648,0.0610806
515.748,0.0610493
515.848,0.0610181
515.948,0.0609869
516.048,0.0609557
516.148,0.0609246
516.248,0.0608935
516.348,0.0608624
516.448,0.0608314
516.548,0.0608004
516.648,0.0607695
516.748,0.0607386
516.848,0.0607077
516.948,0.0606768
517.048,0.060646