File: ingan/robins_1999/in50/raman/curve_1_fit.dat
600.627,0.0650594
600.727,0.0656042
600.827,0.0661526
600.927,0.0667045
601.027,0.0672599
601.127,0.0678189
601.227,0.0683814
601.327,0.0689475
601.427,0.0695172
601.527,0.0700904
601.627,0.0706673
601.727,0.0712478
601.827,0.0718318
601.927,0.0724196
602.027,0.0730109
602.127,0.073606
602.227,0.0742047
602.327,0.074807
602.427,0.0754131
602.527,0.0760228
602.627,0.0766363
602.727,0.0772535
602.827,0.0778744
602.927,0.078499
603.027,0.0791274
603.127,0.0797596
603.227,0.0803955
603.327,0.0810352
603.427,0.0816787
603.527,0.082326
603.627,0.0829771
603.727,0.083632
603.827,0.0842907
603.927,0.0849533
604.027,0.0856197
604.127,0.0862899
604.227,0.086964
604.327,0.087642
604.427,0.0883239
604.527,0.0890097
604.627,0.0896993
604.727,0.0903928
604.827,0.0910903
604.927,0.0917917
605.027,0.092497
605.127,0.0932062
605.227,0.0939194
605.327,0.0946365
605.427,0.0953576
605.527,0.0960826
605.627,0.0968116
605.727,0.0975446
605.827,0.0982816
605.927,0.0990225
606.027,0.0997675
606.127,0.100516
606.227,0.101269
606.327,0.102026
606.427,0.102787
606.527,0.103552
606.627,0.104321
606.727,0.105094
606.827,0.105872
606.927,0.106653
607.027,0.107438
607.127,0.108227
607.227,0.109021
607.327,0.109818
607.427,0.110619
607.527,0.111425
607.627,0.112235
607.727,0.113048
607.827,0.113866
607.927,0.114688
608.027,0.115514
608.127,0.116344
608.227,0.117178
608.327,0.118016
608.427,0.118859
608.527,0.119705
608.627,0.120556
608.727,0.12141
608.827,0.122269
608.927,0.123132
609.027,0.123999
609.127,0.12487
609.227,0.125745
609.327,0.126625
609.427,0.127508
609.527,0.128396
609.627,0.129287
609.727,0.130183
609.827,0.131083
609.927,0.131987
610.027,0.132895
610.127,0.133808
610.227,0.134724
610.327,0.135644
610.427,0.136569
610.527,0.137498
610.627,0.138431
610.727,0.139367
610.827,0.140308
610.927,0.141254
611.027,0.142203
611.127,0.143156
611.227,0.144114
611.327,0.145075
611.427,0.146041
611.527,0.14701
611.627,0.147984
611.727,0.148962
611.827,0.149944
611.927,0.15093
612.027,0.15192
612.127,0.152914
612.227,0.153912
612.327,0.154914
612.427,0.15592
612.527,0.156931
612.627,0.157945
612.727,0.158963
612.827,0.159986
612.927,0.161012
613.027,0.162042
613.127,0.163077
613.227,0.164115
613.327,0.165157
613.427,0.166203
613.527,0.167254
613.627,0.168308
613.727,0.169366
613.827,0.170428
613.927,0.171494
614.027,0.172564
614.127,0.173638
614.227,0.174715
614.327,0.175797
614.427,0.176882
614.527,0.177972
614.627,0.179065
614.727,0.180162
614.827,0.181262
614.927,0.182367
615.027,0.183476
615.127,0.184588
615.227,0.185704
615.327,0.186824
615.427,0.187947
615.527,0.189074
615.627,0.190205
615.727,0.19134
615.827,0.192479
615.927,0.193621
616.027,0.194767
616.127,0.195916
616.227,0.197069
616.327,0.198226
616.427,0.199386
616.527,0.20055
616.627,0.201718
616.727,0.202889
616.827,0.204063
616.927,0.205241
617.027,0.206423
617.127,0.207608
617.227,0.208797
617.327,0.209989
617.427,0.211184
617.527,0.212383
617.627,0.213586
617.727,0.214791
617.827,0.216
617.927,0.217213
618.027,0.218428
618.127,0.219647
618.227,0.22087
618.327,0.222095
618.427,0.223324
618.527,0.224556
618.627,0.225791
618.727,0.22703
618.827,0.228271
618.927,0.229516
619.027,0.230764
619.127,0.232015
619.227,0.233269
619.327,0.234526
619.427,0.235786
619.527,0.237049
619.627,0.238314
619.727,0.239583
619.827,0.240855
619.927,0.24213
620.027,0.243407
620.127,0.244688
620.227,0.245971
620.327,0.247257
620.427,0.248546
620.527,0.249837
620.627,0.251131
620.727,0.252428
620.827,0.253728
620.927,0.25503
621.027,0.256335
621.127,0.257642
621.227,0.258952
621.327,0.260264
621.427,0.261579
621.527,0.262896
621.627,0.264216
621.727,0.265538
621.827,0.266862
621.927,0.268189
622.027,0.269518
622.127,0.27085
622.227,0.272183
622.327,0.273519
622.427,0.274857
622.527,0.276197
622.627,0.277539
622.727,0.278883
622.827,0.28023
622.927,0.281578
623.027,0.282928
623.127,0.284281
623.227,0.285635
623.327,0.286991
623.427,0.288349
623.527,0.289708
623.627,0.29107
623.727,0.292433
623.827,0.293798
623.927,0.295164
624.027,0.296533
624.127,0.297902
624.227,0.299274
624.327,0.300647
624.427,0.302021
624.527,0.303397
624.627,0.304774
624.727,0.306152
624.827,0.307532
624.927,0.308913
625.027,0.310296
625.127,0.311679
625.227,0.313064
625.327,0.31445
625.427,0.315837
625.527,0.317225
625.627,0.318614
625.727,0.320005
625.827,0.321396
625.927,0.322788
626.027,0.32418
626.127,0.325574
626.227,0.326968
626.327,0.328364
626.427,0.329759
626.527,0.331156
626.627,0.332553
626.727,0.333951
626.827,0.335349
626.927,0.336747
627.027,0.338147
627.127,0.339546
627.227,0.340946
627.327,0.342346
627.427,0.343747
627.527,0.345147
627.627,0.346548
627.727,0.347949
627.827,0.34935
627.927,0.350751
628.027,0.352152
628.127,0.353554
628.227,0.354955
628.327,0.356355
628.427,0.357756
628.527,0.359157
628.627,0.360557
628.727,0.361957
628.827,0.363356
628.927,0.364755
629.027,0.366154
629.127,0.367552
629.227,0.36895
629.327,0.370347
629.427,0.371744
629.527,0.373139
629.627,0.374534
629.727,0.375928
629.827,0.377322
629.927,0.378714
630.027,0.380106
630.127,0.381497
630.227,0.382886
630.327,0.384275
630.427,0.385662
630.527,0.387048
630.627,0.388434
630.727,0.389817
630.827,0.3912
630.927,0.392581
631.027,0.393961
631.127,0.395339
631.227,0.396716
631.327,0.398091
631.427,0.399465
631.527,0.400837
631.627,0.402207
631.727,0.403575
631.827,0.404942
631.927,0.406307
632.027,0.40767
632.127,0.409031
632.227,0.41039
632.327,0.411747
632.427,0.413102
632.527,0.414454
632.627,0.415805
632.727,0.417153
632.827,0.418499
632.927,0.419843
633.027,0.421184
633.127,0.422523
633.227,0.423859
633.327,0.425192
633.427,0.426524
633.527,0.427852
633.627,0.429178
633.727,0.430501
633.827,0.431821
633.927,0.433138
634.027,0.434452
634.127,0.435764
634.227,0.437072
634.327,0.438378
634.427,0.43968
634.527,0.440979
634.627,0.442275
634.727,0.443567
634.827,0.444857
634.927,0.446143
635.027,0.447425
635.127,0.448704
635.227,0.44998
635.327,0.451252
635.427,0.45252
635.527,0.453784
635.627,0.455045
635.727,0.456303
635.827,0.457556
635.927,0.458805
636.027,0.460051
636.127,0.461292
636.227,0.46253
636.327,0.463763
636.427,0.464993
636.527,0.466218
636.627,0.467439
636.727,0.468655
636.827,0.469868
636.927,0.471076
637.027,0.472279
637.127,0.473478
637.227,0.474673
637.327,0.475863
637.427,0.477048
637.527,0.478229
637.627,0.479405
637.727,0.480576
637.827,0.481742
637.927,0.482904
638.027,0.48406
638.127,0.485212
638.227,0.486358
638.327,0.4875
638.427,0.488636
638.527,0.489767
638.627,0.490893
638.727,0.492014
638.827,0.49313
638.927,0.49424
639.027,0.495344
639.127,0.496444
639.227,0.497537
639.327,0.498626
639.427,0.499708
639.527,0.500785
639.627,0.501857
639.727,0.502922
639.827,0.503982
639.927,0.505036
640.027,0.506084
640.127,0.507126
640.227,0.508163
640.327,0.509193
640.427,0.510217
640.527,0.511235
640.627,0.512247
640.727,0.513253
640.827,0.514252
640.927,0.515246
641.027,0.516233
641.127,0.517213
641.227,0.518188
641.327,0.519155
641.427,0.520117
641.527,0.521071
641.627,0.52202
641.727,0.522961
641.827,0.523896
641.927,0.524824
642.027,0.525746
642.127,0.526661
642.227,0.527568
642.327,0.528469
642.427,0.529364
642.527,0.530251
642.627,0.531131
642.727,0.532004
642.827,0.53287
642.927,0.533729
643.027,0.534581
643.127,0.535426
643.227,0.536263
643.327,0.537094
643.427,0.537917
643.527,0.538732
643.627,0.53954
643.727,0.540341
643.827,0.541135
643.927,0.54192
644.027,0.542699
644.127,0.54347
644.227,0.544233
644.327,0.544989
644.427,0.545737
644.527,0.546477
644.627,0.54721
644.727,0.547934
644.827,0.548651
644.927,0.549361
645.027,0.550062
645.127,0.550756
645.227,0.551441
645.327,0.552119
645.427,0.552788
645.527,0.55345
645.627,0.554104
645.727,0.554749
645.827,0.555386
645.927,0.556016
646.027,0.556637
646.127,0.55725
646.227,0.557854
646.327,0.558451
646.427,0.559039
646.527,0.559619
646.627,0.56019
646.727,0.560754
646.827,0.561308
646.927,0.561855
647.027,0.562393
647.127,0.562922
647.227,0.563443
647.327,0.563956
647.427,0.564459
647.527,0.564955
647.627,0.565442
647.727,0.56592
647.827,0.566389
647.927,0.56685
648.027,0.567303
648.127,0.567746
648.227,0.568181
648.327,0.568607
648.427,0.569024
648.527,0.569433
648.627,0.569833
648.727,0.570224
648.827,0.570606
648.927,0.570979
649.027,0.571344
649.127,0.571699
649.227,0.572046
649.327,0.572384
649.427,0.572712
649.527,0.573032
649.627,0.573343
649.727,0.573645
649.827,0.573938
649.927,0.574222
650.027,0.574497
650.127,0.574762
650.227,0.575019
650.327,0.575267
650.427,0.575506
650.527,0.575735
650.627,0.575956
650.727,0.576167
650.827,0.576369
650.927,0.576563
651.027,0.576747
651.127,0.576921
651.227,0.577087
651.327,0.577244
651.427,0.577391
651.527,0.577529
651.627,0.577658
651.727,0.577778
651.827,0.577889
651.927,0.577991
652.027,0.578083
652.127,0.578166
652.227,0.57824
652.327,0.578304
652.427,0.57836
652.527,0.578406
652.627,0.578443
652.727,0.578471
652.827,0.578489
652.927,0.578499
653.027,0.578499
653.127,0.57849
653.227,0.578471
653.327,0.578444
653.427,0.578407
653.527,0.578361
653.627,0.578306
653.727,0.578241
653.827,0.578168
653.927,0.578085
654.027,0.577993
654.127,0.577892
654.227,0.577781
654.327,0.577662
654.427,0.577533
654.527,0.577395
654.627,0.577248
654.727,0.577091
654.827,0.576926
654.927,0.576751
655.027,0.576567
655.127,0.576374
655.227,0.576172
655.327,0.575961
655.427,0.575741
655.527,0.575511
655.627,0.575273
655.727,0.575025
655.827,0.574769
655.927,0.574503
656.027,0.574229
656.127,0.573945
656.227,0.573652
656.327,0.573351
656.427,0.57304
656.527,0.57272
656.627,0.572392
656.727,0.572054
656.827,0.571708
656.927,0.571353
657.027,0.570988
657.127,0.570615
657.227,0.570233
657.327,0.569843
657.427,0.569443
657.527,0.569035
657.627,0.568618
657.727,0.568192
657.827,0.567757
657.927,0.567314
658.027,0.566862
658.127,0.566401
658.227,0.565932
658.327,0.565454
658.427,0.564967
658.527,0.564472
658.627,0.563968
658.727,0.563456
658.827,0.562935
658.927,0.562406
659.027,0.561868
659.127,0.561322
659.227,0.560767
659.327,0.560204
659.427,0.559633
659.527,0.559053
659.627,0.558465
659.727,0.557869
659.827,0.557265
659.927,0.556652
660.027,0.556031
660.127,0.555402
660.227,0.554765
660.327,0.55412
660.427,0.553466
660.527,0.552805
660.627,0.552135
660.727,0.551458
660.827,0.550773
660.927,0.550079
661.027,0.549378
661.127,0.548669
661.227,0.547952
661.327,0.547228
661.427,0.546495
661.527,0.545755
661.627,0.545007
661.727,0.544252
661.827,0.543489
661.927,0.542718
662.027,0.54194
662.127,0.541154
662.227,0.540361
662.327,0.53956
662.427,0.538752
662.527,0.537937
662.627,0.537114
662.727,0.536284
662.827,0.535447
662.927,0.534602
663.027,0.533751
663.127,0.532892
663.227,0.532026
663.327,0.531153
663.427,0.530273
663.527,0.529386
663.627,0.528492
663.727,0.527591
663.827,0.526683
663.927,0.525769
664.027,0.524847
664.127,0.523919
664.227,0.522984
664.327,0.522043
664.427,0.521095
664.527,0.52014
664.627,0.519179
664.727,0.518212
664.827,0.517238
664.927,0.516257
665.027,0.51527
665.127,0.514277
665.227,0.513278
665.327,0.512272
665.427,0.51126
665.527,0.510242
665.627,0.509218
665.727,0.508188
665.827,0.507152
665.927,0.50611
666.027,0.505062
666.127,0.504008
666.227,0.502948
666.327,0.501883
666.427,0.500812
666.527,0.499735
666.627,0.498653
666.727,0.497564
666.827,0.496471
666.927,0.495372
667.027,0.494267
667.127,0.493157
667.227,0.492042
667.327,0.490921
667.427,0.489795
667.527,0.488664
667.627,0.487528
667.727,0.486387
667.827,0.48524
667.927,0.484089
668.027,0.482932
668.127,0.481771
668.227,0.480605
668.327,0.479434
668.427,0.478258
668.527,0.477077
668.627,0.475892
668.727,0.474702
668.827,0.473508
668.927,0.472309
669.027,0.471106
669.127,0.469898
669.227,0.468686
669.327,0.467469
669.427,0.466248
669.527,0.465023
669.627,0.463794
669.727,0.462561
669.827,0.461323
669.927,0.460082
670.027,0.458836
670.127,0.457587
670.227,0.456334
670.327,0.455077
670.427,0.453816
670.527,0.452551
670.627,0.451283
670.727,0.450011
670.827,0.448736
670.927,0.447457
671.027,0.446174
671.127,0.444889
671.227,0.443599
671.327,0.442307
671.427,0.441011
671.527,0.439712
671.627,0.43841
671.727,0.437105
671.827,0.435796
671.927,0.434485
672.027,0.433171
672.127,0.431853
672.227,0.430533
672.327,0.429211
672.427,0.427885
672.527,0.426557
672.627,0.425226
672.727,0.423892
672.827,0.422556
672.927,0.421217
673.027,0.419876
673.127,0.418532
673.227,0.417186
673.327,0.415838
673.427,0.414488
673.527,0.413135
673.627,0.41178
673.727,0.410423
673.827,0.409065
673.927,0.407704
674.027,0.406341
674.127,0.404976
674.227,0.403609
674.327,0.402241
674.427,0.400871
674.527,0.399499
674.627,0.398125
674.727,0.39675
674.827,0.395373
674.927,0.393995
675.027,0.392615
675.127,0.391234
675.227,0.389852
675.327,0.388468
675.427,0.387083
675.527,0.385697
675.627,0.384309
675.727,0.382921
675.827,0.381531
675.927,0.38014
676.027,0.378749
676.127,0.377356
676.227,0.375963
676.327,0.374569
676.427,0.373174
676.527,0.371778
676.627,0.370382
676.727,0.368985
676.827,0.367587
676.927,0.366189
677.027,0.36479
677.127,0.363391
677.227,0.361992
677.327,0.360592
677.427,0.359191
677.527,0.357791
677.627,0.35639
677.727,0.354989
677.827,0.353588
677.927,0.352187
678.027,0.350786
678.127,0.349385
678.227,0.347984
678.327,0.346583
678.427,0.345182
678.527,0.343781
678.627,0.342381
678.727,0.340981
678.827,0.339581
678.927,0.338181
679.027,0.336782
679.127,0.335383
679.227,0.333985
679.327,0.332588
679.427,0.33119
679.527,0.329794
679.627,0.328398
679.727,0.327003
679.827,0.325609
679.927,0.324215
680.027,0.322822
680.127,0.32143
680.227,0.320039
680.327,0.318649
680.427,0.31726
680.527,0.315872
680.627,0.314485
680.727,0.313099
680.827,0.311714
680.927,0.31033
681.027,0.308948
681.127,0.307566
681.227,0.306187
681.327,0.304808
681.427,0.303431
681.527,0.302055
681.627,0.300681
681.727,0.299308
681.827,0.297936
681.927,0.296567
682.027,0.295198
682.127,0.293832
682.227,0.292467
682.327,0.291104
682.427,0.289742
682.527,0.288382
682.627,0.287024
682.727,0.285668
682.827,0.284314
682.927,0.282962
683.027,0.281612
683.127,0.280263
683.227,0.278917
683.327,0.277572
683.427,0.27623
683.527,0.27489
683.627,0.273552
683.727,0.272216
683.827,0.270883
683.927,0.269551
684.027,0.268222
684.127,0.266895
684.227,0.265571
684.327,0.264249
684.427,0.262929
684.527,0.261611
684.627,0.260297
684.727,0.258984
684.827,0.257674
684.927,0.256367
685.027,0.255062
685.127,0.25376
685.227,0.25246
685.327,0.251163
685.427,0.249869
685.527,0.248578
685.627,0.247289
685.727,0.246003
685.827,0.24472
685.927,0.243439
686.027,0.242161
686.127,0.240887
686.227,0.239615
686.327,0.238346
686.427,0.23708
686.527,0.235817
686.627,0.234557
686.727,0.2333
686.827,0.232046
686.927,0.230795
687.027,0.229547
687.127,0.228302
687.227,0.227061
687.327,0.225822
687.427,0.224587
687.527,0.223355
687.627,0.222126
687.727,0.2209
687.827,0.219678
687.927,0.218459
688.027,0.217243
688.127,0.21603
688.227,0.214821
688.327,0.213615
688.427,0.212413
688.527,0.211214
688.627,0.210018
688.727,0.208826
688.827,0.207638
688.927,0.206452
689.027,0.205271
689.127,0.204092
689.227,0.202918
689.327,0.201747
689.427,0.200579
689.527,0.199415
689.627,0.198255
689.727,0.197098
689.827,0.195945
689.927,0.194795
690.027,0.193649
690.127,0.192507
690.227,0.191368
690.327,0.190234
690.427,0.189102
690.527,0.187975
690.627,0.186851
690.727,0.185732
690.827,0.184615
690.927,0.183503
691.027,0.182395
691.127,0.18129
691.227,0.180189
691.327,0.179092
691.427,0.177999
691.527,0.176909
691.627,0.175824
691.727,0.174742
691.827,0.173664
691.927,0.17259
692.027,0.17152
692.127,0.170454
692.227,0.169392
692.327,0.168334
692.427,0.16728
692.527,0.166229
692.627,0.165183
692.727,0.164141
692.827,0.163102
692.927,0.162068
693.027,0.161037
693.127,0.160011
693.227,0.158989
693.327,0.15797
693.427,0.156956
693.527,0.155945
693.627,0.154939
693.727,0.153937
693.827,0.152939
693.927,0.151944
694.027,0.150954
694.127,0.149968
694.227,0.148986
694.327,0.148008
694.427,0.147034
694.527,0.146065
694.627,0.145099
694.727,0.144137
694.827,0.14318
694.927,0.142226
695.027,0.141277
695.127,0.140332
695.227,0.139391
695.327,0.138454
695.427,0.137521
695.527,0.136592
695.627,0.135667
695.727,0.134747
695.827,0.13383
695.927,0.132918
696.027,0.13201
696.127,0.131105
696.227,0.130205
696.327,0.12931
696.427,0.128418
696.527,0.12753
696.627,0.126647
696.727,0.125767
696.827,0.124892
696.927,0.124021
697.027,0.123153
697.127,0.12229
697.227,0.121432
697.327,0.120577
697.427,0.119726
697.527,0.11888
697.627,0.118037
697.727,0.117199
697.827,0.116365
697.927,0.115534
698.027,0.114708
698.127,0.113886
698.227,0.113069
698.327,0.112255
698.427,0.111445
698.527,0.110639
698.627,0.109838
698.727,0.10904
698.827,0.108247
698.927,0.107458
699.027,0.106672
699.127,0.105891
699.227,0.105114
699.327,0.104341
699.427,0.103571
699.527,0.102806
699.627,0.102045
699.727,0.101288
699.827,0.100535
699.927,0.099786
700.027,0.0990409
700.127,0.0982999
700.227,0.0975628
700.327,0.0968297
700.427,0.0961006
700.527,0.0953755
700.627,0.0946543
700.727,0.0939371
700.827,0.0932238
700.927,0.0925145
701.027,0.0918091
701.127,0.0911076
701.227,0.0904101
701.327,0.0897164
701.427,0.0890267
701.527,0.0883409
701.627,0.0876589
701.727,0.0869808
701.827,0.0863066
701.927,0.0856362
702.027,0.0849697
702.127,0.0843071
702.227,0.0836482
702.327,0.0829932
702.427,0.0823421
702.527,0.0816947
702.627,0.0810511
702.727,0.0804113
702.827,0.0797753
702.927,0.079143
703.027,0.0785146
703.127,0.0778898
703.227,0.0772688
703.327,0.0766516
703.427,0.076038
703.527,0.0754282
703.627,0.074822
703.727,0.0742195
703.827,0.0736208
703.927,0.0730257
704.027,0.0724342
704.127,0.0718464
704.227,0.0712622
704.327,0.0706816
704.427,0.0701047
704.527,0.0695313
704.627,0.0689616
704.727,0.0683954
704.827,0.0678328
704.927,0.0672737
705.027,0.0667182
705.127,0.0661662
705.227,0.0656178
705.327,0.0650728
705.427,0.0645314
705.527,0.0639934
705.627,0.0634589
705.727,0.0629279
705.827,0.0624003
705.927,0.0618761
706.027,0.0613554
706.127,0.0608381
706.227,0.0603242
706.327,0.0598136
706.427,0.0593065
706.527,0.0588027
706.627,0.0583023
706.727,0.0578052
706.827,0.0573114
706.927,0.0568209
707.027,0.0563337
707.127,0.0558499
707.227,0.0553693
707.327,0.0548919
707.427,0.0544178
707.527,0.0539469
707.627,0.0534793
707.727,0.0530149
707.827,0.0525536
707.927,0.0520956
708.027,0.0516407
708.127,0.0511889
708.227,0.0507404
708.327,0.0502949
708.427,0.0498525
708.527,0.0494133
708.627,0.0489771
708.727,0.0485441
708.827,0.0481141
708.927,0.0476871
709.027,0.0472632
709.127,0.0468422
709.227,0.0464243
709.327,0.0460094
709.427,0.0455975
709.527,0.0451885
709.627,0.0447825
709.727,0.0443795
709.827,0.0439793
709.927,0.0435821
710.027,0.0431878
710.127,0.0427963
710.227,0.0424078
710.327,0.0420221
710.427,0.0416392
710.527,0.0412592
710.627,0.0408819
710.727,0.0405075
710.827,0.0401359
710.927,0.039767
711.027,0.0394009
711.127,0.0390376
711.227,0.038677
711.327,0.0383191
711.427,0.0379639
711.527,0.0376114
711.627,0.0372616
711.727,0.0369145
711.827,0.03657
711.927,0.0362281
712.027,0.0358889
712.127,0.0355522
712.227,0.0352182
712.327,0.0348868
712.427,0.0345579
712.527,0.0342316
712.627,0.0339078
712.727,0.0335865
712.827,0.0332678
712.927,0.0329515
713.027,0.0326378
713.127,0.0323265
713.227,0.0320176
713.327,0.0317113
713.427,0.0314073
713.527,0.0311058
713.627,0.0308066
713.727,0.0305099
713.827,0.0302155
713.927,0.0299235
714.027,0.0296339
714.127,0.0293466
714.227,0.0290616
714.327,0.0287789
714.427,0.0284985
714.527,0.0282204
714.627,0.0279445
714.727,0.027671
714.827,0.0273996
714.927,0.0271305
715.027,0.0268636
715.127,0.0265989
715.227,0.0263364
715.327,0.026076
715.427,0.0258179
715.527,0.0255618
715.627,0.025308
715.727,0.0250562
715.827,0.0248065
715.927,0.024559
716.027,0.0243135
716.127,0.0240701
716.227,0.0238287
716.327,0.0235894
716.427,0.0233521
716.527,0.0231169
716.627,0.0228836
716.727,0.0226523
716.827,0.0224231
716.927,0.0221957
717.027,0.0219704
717.127,0.021747
717.227,0.0215255
717.327,0.0213059
717.427,0.0210882
717.527,0.0208724
717.627,0.0206585
717.727,0.0204465
717.827,0.0202363
717.927,0.020028
718.027,0.0198215
718.127,0.0196168
718.227,0.0194139
718.327,0.0192128
718.427,0.0190134
718.527,0.0188159
718.627,0.0186201
718.727,0.018426
718.827,0.0182337
718.927,0.0180431
719.027,0.0178542
719.127,0.017667
719.227,0.0174815
719.327,0.0172977
719.427,0.0171155
719.527,0.016935
719.627,0.0167561
719.727,0.0165788
719.827,0.0164031
719.927,0.0162291
720.027,0.0160566
720.127,0.0158857
720.227,0.0157164
720.327,0.0155487
720.427,0.0153824
720.527,0.0152178
720.627,0.0150546
720.727,0.014893
720.827,0.0147328
720.927,0.0145742
721.027,0.014417
721.127,0.0142613
721.227,0.014107
721.327,0.0139542
721.427,0.0138028
721.527,0.0136529
721.627,0.0135044
721.727,0.0133572
721.827,0.0132115
721.927,0.0130671
722.027,0.0129242
722.127,0.0127825
722.227,0.0126423
722.327,0.0125033
722.427,0.0123657
722.527,0.0122294
722.627,0.0120945
722.727,0.0119608
722.827,0.0118284
722.927,0.0116973
723.027,0.0115674
723.127,0.0114389
723.227,0.0113115
723.327,0.0111854
723.427,0.0110606
723.527,0.0109369
723.627,0.0108145
723.727,0.0106933
723.827,0.0105732
723.927,0.0104544
724.027,0.0103367
724.127,0.0102201
724.227,0.0101048
724.327,0.00999052
724.427,0.00987742
724.527,0.00976544
724.627,0.00965458
724.727,0.00954483
724.827,0.00943617
724.927,0.0093286
725.027,0.00922211
725.127,0.0091167
725.227,0.00901234
725.327,0.00890903
725.427,0.00880677
725.527,0.00870554
725.627,0.00860534
725.727,0.00850616
725.827,0.00840799
725.927,0.00831082
726.027,0.00821463
726.127,0.00811944
726.227,0.00802521
726.327,0.00793196
726.427,0.00783966
726.527,0.00774832
726.627,0.00765791
726.727,0.00756844
726.827,0.0074799
726.927,0.00739227
727.027,0.00730556
727.127,0.00721974
727.227,0.00713483
727.327,0.00705079
727.427,0.00696764
727.527,0.00688535
727.627,0.00680393
727.727,0.00672337
727.827,0.00664365
727.927,0.00656478
728.027,0.00648673
728.127,0.00640952
728.227,0.00633312
728.327,0.00625753
728.427,0.00618274
728.527,0.00610876
728.627,0.00603556
728.727,0.00596314
728.827,0.0058915
728.927,0.00582062
729.027,0.00575051
729.127,0.00568115
729.227,0.00561254
729.327,0.00554466
729.427,0.00547752
729.527,0.00541111
729.627,0.00534542
729.727,0.00528044
729.827,0.00521617
729.927,0.0051526
730.027,0.00508972
730.127,0.00502753
730.227,0.00496602
730.327,0.00490518
730.427,0.00484501
730.527,0.00478551
730.627,0.00472666
730.727,0.00466845
730.827,0.0046109
730.927,0.00455397
731.027,0.00449768
731.127,0.00444202
731.227,0.00438697
731.327,0.00433254
731.427,0.00427871
731.527,0.00422549
731.627,0.00417286
731.727,0.00412082
731.827,0.00406936
731.927,0.00401848
732.027,0.00396818
732.127,0.00391844
732.227,0.00386927
732.327,0.00382065
732.427,0.00377258
732.527,0.00372506
732.627,0.00367807
732.727,0.00363163
732.827,0.00358571
732.927,0.00354031
733.027,0.00349544
733.127,0.00345107
733.227,0.00340722
733.327,0.00336387
733.427,0.00332102
733.527,0.00327866
733.627,0.00323679
733.727,0.00319541
733.827,0.0031545
733.927,0.00311407
734.027,0.00307411
734.127,0.00303461
734.227,0.00299557
734.327,0.00295698
734.427,0.00291885
734.527,0.00288116
734.627,0.00284392
734.727,0.00280711
734.827,0.00277073
734.927,0.00273478
735.027,0.00269925
735.127,0.00266415
735.227,0.00262945
735.327,0.00259517
735.427,0.0025613
735.527,0.00252782
735.627,0.00249475
735.727,0.00246206
735.827,0.00242977
735.927,0.00239786
736.027,0.00236634
736.127,0.00233519
736.227,0.00230441
736.327,0.002274
736.427,0.00224396
736.527,0.00221428
736.627,0.00218496
736.727,0.00215599
736.827,0.00212737
736.927,0.0020991
737.027,0.00207117
737.127,0.00204358
737.227,0.00201633
737.327,0.0019894
737.427,0.00196281
737.527,0.00193654
737.627,0.00191059
737.727,0.00188496
737.827,0.00185964
737.927,0.00183464
738.027,0.00180994
738.127,0.00178554
738.227,0.00176145
738.327,0.00173765
738.427,0.00171415
738.527,0.00169094
738.627,0.00166801
738.727,0.00164537
738.827,0.00162302
738.927,0.00160094
739.027,0.00157913
739.127,0.0015576
739.227,0.00153634
739.327,0.00151534
739.427,0.0014946
739.527,0.00147413
739.627,0.00145391
739.727,0.00143395
739.827,0.00141424
739.927,0.00139478
740.027,0.00137556
740.127,0.00135659
740.227,0.00133786
740.327,0.00131936
740.427,0.0013011
740.527,0.00128308
740.627,0.00126528
740.727,0.00124771
740.827,0.00123036
740.927,0.00121323
741.027,0.00119633
741.127,0.00117964
741.227,0.00116316
741.327,0.0011469
741.427,0.00113085
741.527,0.001115
741.627,0.00109936
741.727,0.00108392
741.827,0.00106868
741.927,0.00105364
742.027,0.00103879
742.127,0.00102414
742.227,0.00100967
742.327,0.000995396
742.427,0.000981306
742.527,0.000967401
742.627,0.000953677
742.727,0.000940134
742.827,0.000926767
742.927,0.000913577
743.027,0.000900559
743.127,0.000887713
743.227,0.000875036
743.327,0.000862527
743.427,0.000850183
743.527,0.000838002
743.627,0.000825982
743.727,0.000814122
743.827,0.000802419
743.927,0.000790872
744.027,0.000779479
744.127,0.000768238
744.227,0.000757146
744.327,0.000746203
744.427,0.000735406
744.527,0.000724754
744.627,0.000714245
744.727,0.000703877
744.827,0.000693649
744.927,0.000683558
745.027,0.000673603
745.127,0.000663783
745.227,0.000654095
745.327,0.000644539
745.427,0.000635112
745.527,0.000625812
745.627,0.00061664
745.727,0.000607592
745.827,0.000598667
745.927,0.000589864
746.027,0.000581181
746.127,0.000572616
746.227,0.000564169
746.327,0.000555838
746.427,0.000547621
746.527,0.000539517
746.627,0.000531524
746.727,0.000523642
746.827,0.000515868
746.927,0.000508201
747.027,0.00050064