File: ingan/robins_1999/in50/raman/curve_2_fit.dat
600.627,2.80318e-06
600.727,2.88819e-06
600.827,2.97568e-06
600.927,3.06571e-06
601.027,3.15835e-06
601.127,3.25368e-06
601.227,3.35177e-06
601.327,3.4527e-06
601.427,3.55654e-06
601.527,3.66338e-06
601.627,3.7733e-06
601.727,3.88638e-06
601.827,4.00271e-06
601.927,4.12238e-06
602.027,4.24548e-06
602.127,4.3721e-06
602.227,4.50235e-06
602.327,4.63631e-06
602.427,4.7741e-06
602.527,4.9158e-06
602.627,5.06154e-06
602.727,5.21142e-06
602.827,5.36555e-06
602.927,5.52405e-06
603.027,5.68703e-06
603.127,5.85461e-06
603.227,6.02693e-06
603.327,6.2041e-06
603.427,6.38626e-06
603.527,6.57354e-06
603.627,6.76607e-06
603.727,6.96401e-06
603.827,7.16748e-06
603.927,7.37665e-06
604.027,7.59165e-06
604.127,7.81265e-06
604.227,8.0398e-06
604.327,8.27327e-06
604.427,8.51323e-06
604.527,8.75984e-06
604.627,9.01328e-06
604.727,9.27373e-06
604.827,9.54138e-06
604.927,9.81641e-06
605.027,1.0099e-05
605.127,1.03894e-05
605.227,1.06878e-05
605.327,1.09943e-05
605.427,1.13093e-05
605.527,1.16328e-05
605.627,1.19652e-05
605.727,1.23067e-05
605.827,1.26575e-05
605.927,1.30178e-05
606.027,1.3388e-05
606.127,1.37681e-05
606.227,1.41586e-05
606.327,1.45596e-05
606.427,1.49715e-05
606.527,1.53945e-05
606.627,1.58289e-05
606.727,1.6275e-05
606.827,1.67331e-05
606.927,1.72035e-05
607.027,1.76865e-05
607.127,1.81824e-05
607.227,1.86916e-05
607.327,1.92144e-05
607.427,1.97511e-05
607.527,2.03021e-05
607.627,2.08677e-05
607.727,2.14483e-05
607.827,2.20444e-05
607.927,2.26562e-05
608.027,2.32842e-05
608.127,2.39288e-05
608.227,2.45903e-05
608.327,2.52693e-05
608.427,2.59661e-05
608.527,2.66812e-05
608.627,2.74151e-05
608.727,2.81681e-05
608.827,2.89408e-05
608.927,2.97337e-05
609.027,3.05473e-05
609.127,3.1382e-05
609.227,3.22385e-05
609.327,3.31171e-05
609.427,3.40185e-05
609.527,3.49433e-05
609.627,3.58919e-05
609.727,3.6865e-05
609.827,3.78631e-05
609.927,3.8887e-05
610.027,3.99371e-05
610.127,4.10142e-05
610.227,4.21189e-05
610.327,4.32518e-05
610.427,4.44136e-05
610.527,4.56051e-05
610.627,4.68269e-05
610.727,4.80798e-05
610.827,4.93645e-05
610.927,5.06817e-05
611.027,5.20323e-05
611.127,5.3417e-05
611.227,5.48367e-05
611.327,5.62921e-05
611.427,5.77842e-05
611.527,5.93138e-05
611.627,6.08817e-05
611.727,6.24889e-05
611.827,6.41363e-05
611.927,6.58249e-05
612.027,6.75556e-05
612.127,6.93293e-05
612.227,7.11472e-05
612.327,7.30102e-05
612.427,7.49194e-05
612.527,7.68758e-05
612.627,7.88806e-05
612.727,8.09349e-05
612.827,8.30398e-05
612.927,8.51964e-05
613.027,8.74061e-05
613.127,8.96699e-05
613.227,9.19892e-05
613.327,9.43652e-05
613.427,9.67992e-05
613.527,9.92925e-05
613.627,0.000101846
613.727,0.000104463
613.827,0.000107142
613.927,0.000109887
614.027,0.000112697
614.127,0.000115576
614.227,0.000118524
614.327,0.000121544
614.427,0.000124635
614.527,0.000127801
614.627,0.000131043
614.727,0.000134362
614.827,0.000137761
614.927,0.000141241
615.027,0.000144803
615.127,0.000148451
615.227,0.000152185
615.327,0.000156007
615.427,0.00015992
615.527,0.000163925
615.627,0.000168025
615.727,0.000172221
615.827,0.000176516
615.927,0.000180912
616.027,0.000185411
616.127,0.000190015
616.227,0.000194727
616.327,0.000199549
616.427,0.000204483
616.527,0.000209531
616.627,0.000214697
616.727,0.000219983
616.827,0.000225391
616.927,0.000230923
617.027,0.000236584
617.127,0.000242375
617.227,0.000248298
617.327,0.000254358
617.427,0.000260557
617.527,0.000266897
617.627,0.000273383
617.727,0.000280016
617.827,0.0002868
617.927,0.000293738
618.027,0.000300834
618.127,0.00030809
618.227,0.00031551
618.327,0.000323098
618.427,0.000330857
618.527,0.000338791
618.627,0.000346902
618.727,0.000355196
618.827,0.000363675
618.927,0.000372344
619.027,0.000381206
619.127,0.000390266
619.227,0.000399527
619.327,0.000408993
619.427,0.000418669
619.527,0.00042856
619.627,0.000438668
619.727,0.000449
619.827,0.000459559
619.927,0.00047035
620.027,0.000481377
620.127,0.000492646
620.227,0.000504162
620.327,0.000515928
620.427,0.000527951
620.527,0.000540235
620.627,0.000552786
620.727,0.000565609
620.827,0.000578709
620.927,0.000592092
621.027,0.000605764
621.127,0.00061973
621.227,0.000633995
621.327,0.000648567
621.427,0.00066345
621.527,0.000678652
621.627,0.000694177
621.727,0.000710033
621.827,0.000726226
621.927,0.000742763
622.027,0.00075965
622.127,0.000776894
622.227,0.000794501
622.327,0.00081248
622.427,0.000830836
622.527,0.000849578
622.627,0.000868712
622.727,0.000888246
622.827,0.000908188
622.927,0.000928546
623.027,0.000949327
623.127,0.000970539
623.227,0.000992191
623.327,0.00101429
623.427,0.00103685
623.527,0.00105987
623.627,0.00108336
623.727,0.00110734
623.827,0.00113181
623.927,0.00115677
624.027,0.00118225
624.127,0.00120825
624.227,0.00123478
624.327,0.00126184
624.427,0.00128945
624.527,0.00131762
624.627,0.00134637
624.727,0.00137568
624.827,0.00140559
624.927,0.0014361
625.027,0.00146722
625.127,0.00149897
625.227,0.00153134
625.327,0.00156437
625.427,0.00159805
625.527,0.00163239
625.627,0.00166742
625.727,0.00170314
625.827,0.00173956
625.927,0.0017767
626.027,0.00181458
626.127,0.00185319
626.227,0.00189256
626.327,0.0019327
626.427,0.00197362
626.527,0.00201534
626.627,0.00205787
626.727,0.00210123
626.827,0.00214542
626.927,0.00219047
627.027,0.00223638
627.127,0.00228318
627.227,0.00233088
627.327,0.00237949
627.427,0.00242903
627.527,0.00247951
627.627,0.00253096
627.727,0.00258338
627.827,0.0026368
627.927,0.00269123
628.027,0.00274669
628.127,0.00280319
628.227,0.00286076
628.327,0.0029194
628.427,0.00297915
628.527,0.00304001
628.627,0.00310201
628.727,0.00316516
628.827,0.00322949
628.927,0.00329501
629.027,0.00336174
629.127,0.00342971
629.227,0.00349893
629.327,0.00356942
629.427,0.0036412
629.527,0.0037143
629.627,0.00378873
629.727,0.00386453
629.827,0.0039417
629.927,0.00402027
630.027,0.00410027
630.127,0.00418171
630.227,0.00426462
630.327,0.00434903
630.427,0.00443495
630.527,0.00452241
630.627,0.00461144
630.727,0.00470206
630.827,0.00479429
630.927,0.00488816
631.027,0.0049837
631.127,0.00508092
631.227,0.00517987
631.327,0.00528055
631.427,0.00538301
631.527,0.00548727
631.627,0.00559335
631.727,0.00570128
631.827,0.00581109
631.927,0.00592281
632.027,0.00603648
632.127,0.00615211
632.227,0.00626973
632.327,0.00638938
632.427,0.00651109
632.527,0.00663489
632.627,0.00676081
632.727,0.00688888
632.827,0.00701913
632.927,0.0071516
633.027,0.00728631
633.127,0.0074233
633.227,0.0075626
633.327,0.00770426
633.427,0.00784829
633.527,0.00799473
633.627,0.00814363
633.727,0.00829501
633.827,0.00844892
633.927,0.00860538
634.027,0.00876443
634.127,0.00892611
634.227,0.00909046
634.327,0.00925752
634.427,0.00942731
634.527,0.00959989
634.627,0.00977529
634.727,0.00995355
634.827,0.0101347
634.927,0.0103188
635.027,0.0105059
635.127,0.010696
635.227,0.0108891
635.327,0.0110854
635.427,0.0112848
635.527,0.0114874
635.627,0.0116932
635.727,0.0119023
635.827,0.0121147
635.927,0.0123305
636.027,0.0125497
636.127,0.0127723
636.227,0.0129985
636.327,0.0132281
636.427,0.0134614
636.527,0.0136983
636.627,0.0139389
636.727,0.0141832
636.827,0.0144314
636.927,0.0146833
637.027,0.0149391
637.127,0.0151989
637.227,0.0154626
637.327,0.0157304
637.427,0.0160022
637.527,0.0162782
637.627,0.0165584
637.727,0.0168427
637.827,0.0171314
637.927,0.0174245
638.027,0.0177219
638.127,0.0180238
638.227,0.0183302
638.327,0.0186411
638.427,0.0189567
638.527,0.0192769
638.627,0.0196019
638.727,0.0199316
638.827,0.0202662
638.927,0.0206057
639.027,0.0209501
639.127,0.0212996
639.227,0.0216542
639.327,0.0220139
639.427,0.0223787
639.527,0.0227489
639.627,0.0231244
639.727,0.0235052
639.827,0.0238915
639.927,0.0242833
640.027,0.0246806
640.127,0.0250836
640.227,0.0254923
640.327,0.0259068
640.427,0.026327
640.527,0.0267532
640.627,0.0271853
640.727,0.0276234
640.827,0.0280677
640.927,0.028518
641.027,0.0289746
641.127,0.0294375
641.227,0.0299067
641.327,0.0303824
641.427,0.0308646
641.527,0.0313533
641.627,0.0318486
641.727,0.0323507
641.827,0.0328595
641.927,0.0333752
642.027,0.0338978
642.127,0.0344274
642.227,0.034964
642.327,0.0355078
642.427,0.0360587
642.527,0.036617
642.627,0.0371826
642.727,0.0377556
642.827,0.0383362
642.927,0.0389243
643.027,0.03952
643.127,0.0401235
643.227,0.0407348
643.327,0.0413539
643.427,0.041981
643.527,0.0426162
643.627,0.0432594
643.727,0.0439109
643.827,0.0445706
643.927,0.0452386
644.027,0.0459151
644.127,0.0466
644.227,0.0472935
644.327,0.0479957
644.427,0.0487066
644.527,0.0494264
644.627,0.050155
644.727,0.0508926
644.827,0.0516392
644.927,0.052395
645.027,0.05316
645.127,0.0539343
645.227,0.054718
645.327,0.0555111
645.427,0.0563138
645.527,0.0571261
645.627,0.0579481
645.727,0.0587799
645.827,0.0596216
645.927,0.0604732
646.027,0.0613349
646.127,0.0622066
646.227,0.0630886
646.327,0.0639809
646.427,0.0648835
646.527,0.0657966
646.627,0.0667202
646.727,0.0676544
646.827,0.0685993
646.927,0.069555
647.027,0.0705216
647.127,0.0714991
647.227,0.0724876
647.327,0.0734873
647.427,0.0744982
647.527,0.0755203
647.627,0.0765538
647.727,0.0775988
647.827,0.0786553
647.927,0.0797234
648.027,0.0808032
648.127,0.0818948
648.227,0.0829983
648.327,0.0841137
648.427,0.0852411
648.527,0.0863807
648.627,0.0875324
648.727,0.0886964
648.827,0.0898728
648.927,0.0910616
649.027,0.092263
649.127,0.0934769
649.227,0.0947036
649.327,0.095943
649.427,0.0971952
649.527,0.0984604
649.627,0.0997385
649.727,0.10103
649.827,0.102334
649.927,0.103652
650.027,0.104983
650.127,0.106327
650.227,0.107685
650.327,0.109057
650.427,0.110442
650.527,0.11184
650.627,0.113253
650.727,0.114679
650.827,0.11612
650.927,0.117574
651.027,0.119042
651.127,0.120525
651.227,0.122022
651.327,0.123533
651.427,0.125058
651.527,0.126598
651.627,0.128153
651.727,0.129722
651.827,0.131305
651.927,0.132904
652.027,0.134517
652.127,0.136145
652.227,0.137788
652.327,0.139446
652.427,0.141119
652.527,0.142807
652.627,0.14451
652.727,0.146229
652.827,0.147963
652.927,0.149712
653.027,0.151476
653.127,0.153256
653.227,0.155052
653.327,0.156863
653.427,0.15869
653.527,0.160532
653.627,0.162391
653.727,0.164265
653.827,0.166155
653.927,0.168061
654.027,0.169983
654.127,0.17192
654.227,0.173874
654.327,0.175844
654.427,0.17783
654.527,0.179833
654.627,0.181851
654.727,0.183886
654.827,0.185937
654.927,0.188005
655.027,0.190089
655.127,0.192189
655.227,0.194306
655.327,0.196439
655.427,0.198589
655.527,0.200755
655.627,0.202938
655.727,0.205138
655.827,0.207354
655.927,0.209587
656.027,0.211836
656.127,0.214103
656.227,0.216386
656.327,0.218685
656.427,0.221002
656.527,0.223335
656.627,0.225685
656.727,0.228052
656.827,0.230436
656.927,0.232836
657.027,0.235254
657.127,0.237688
657.227,0.240139
657.327,0.242607
657.427,0.245092
657.527,0.247594
657.627,0.250112
657.727,0.252647
657.827,0.2552
657.927,0.257769
658.027,0.260354
658.127,0.262957
658.227,0.265577
658.327,0.268213
658.427,0.270866
658.527,0.273536
658.627,0.276222
658.727,0.278925
658.827,0.281645
658.927,0.284382
659.027,0.287135
659.127,0.289904
659.227,0.292691
659.327,0.295493
659.427,0.298313
659.527,0.301148
659.627,0.304
659.727,0.306869
659.827,0.309754
659.927,0.312655
660.027,0.315572
660.127,0.318505
660.227,0.321455
660.327,0.32442
660.427,0.327402
660.527,0.330399
660.627,0.333413
660.727,0.336442
660.827,0.339487
660.927,0.342547
661.027,0.345624
661.127,0.348715
661.227,0.351822
661.327,0.354945
661.427,0.358083
661.527,0.361236
661.627,0.364404
661.727,0.367587
661.827,0.370785
661.927,0.373997
662.027,0.377225
662.127,0.380467
662.227,0.383724
662.327,0.386995
662.427,0.390281
662.527,0.393581
662.627,0.396894
662.727,0.400222
662.827,0.403564
662.927,0.40692
663.027,0.410289
663.127,0.413672
663.227,0.417068
663.327,0.420477
663.427,0.4239
663.527,0.427336
663.627,0.430784
663.727,0.434245
663.827,0.437719
663.927,0.441206
664.027,0.444704
664.127,0.448215
664.227,0.451738
664.327,0.455273
664.427,0.458819
664.527,0.462377
664.627,0.465947
664.727,0.469528
664.827,0.47312
664.927,0.476722
665.027,0.480336
665.127,0.48396
665.227,0.487595
665.327,0.491239
665.427,0.494894
665.527,0.498559
665.627,0.502233
665.727,0.505917
665.827,0.50961
665.927,0.513313
666.027,0.517024
666.127,0.520744
666.227,0.524473
666.327,0.52821
666.427,0.531955
666.527,0.535708
666.627,0.539469
666.727,0.543238
666.827,0.547013
666.927,0.550796
667.027,0.554586
667.127,0.558383
667.227,0.562185
667.327,0.565995
667.427,0.56981
667.527,0.573631
667.627,0.577457
667.727,0.581289
667.827,0.585126
667.927,0.588968
668.027,0.592815
668.127,0.596666
668.227,0.600521
668.327,0.60438
668.427,0.608243
668.527,0.612109
668.627,0.615978
668.727,0.619851
668.827,0.623726
668.927,0.627603
669.027,0.631483
669.127,0.635364
669.227,0.639248
669.327,0.643132
669.427,0.647018
669.527,0.650905
669.627,0.654792
669.727,0.658679
669.827,0.662567
669.927,0.666455
670.027,0.670342
670.127,0.674228
670.227,0.678113
670.327,0.681997
670.427,0.685879
670.527,0.68976
670.627,0.693638
670.727,0.697514
670.827,0.701388
670.927,0.705258
671.027,0.709125
671.127,0.712989
671.227,0.716848
671.327,0.720704
671.427,0.724555
671.527,0.728402
671.627,0.732243
671.727,0.736079
671.827,0.73991
671.927,0.743734
672.027,0.747553
672.127,0.751365
672.227,0.75517
672.327,0.758968
672.427,0.762759
672.527,0.766542
672.627,0.770317
672.727,0.774084
672.827,0.777842
672.927,0.781591
673.027,0.785331
673.127,0.789062
673.227,0.792783
673.327,0.796494
673.427,0.800194
673.527,0.803883
673.627,0.807562
673.727,0.811229
673.827,0.814885
673.927,0.818528
674.027,0.82216
674.127,0.825779
674.227,0.829385
674.327,0.832977
674.427,0.836557
674.527,0.840122
674.627,0.843674
674.727,0.847211
674.827,0.850733
674.927,0.85424
675.027,0.857732
675.127,0.861208
675.227,0.864669
675.327,0.868113
675.427,0.871541
675.527,0.874952
675.627,0.878345
675.727,0.881721
675.827,0.88508
675.927,0.88842
676.027,0.891742
676.127,0.895046
676.227,0.89833
676.327,0.901595
676.427,0.904841
676.527,0.908067
676.627,0.911272
676.727,0.914458
676.827,0.917622
676.927,0.920765
677.027,0.923888
677.127,0.926988
677.227,0.930067
677.327,0.933123
677.427,0.936157
677.527,0.939169
677.627,0.942157
677.727,0.945122
677.827,0.948063
677.927,0.950981
678.027,0.953874
678.127,0.956743
678.227,0.959588
678.327,0.962407
678.427,0.965201
678.527,0.96797
678.627,0.970712
678.727,0.973429
678.827,0.97612
678.927,0.978784
679.027,0.981421
679.127,0.984031
679.227,0.986614
679.327,0.989169
679.427,0.991697
679.527,0.994196
679.627,0.996667
679.727,0.99911
679.827,1.00152
679.927,1.00391
680.027,1.00626
680.127,1.00859
680.227,1.01089
680.327,1.01315
680.427,1.01539
680.527,1.01759
680.627,1.01977
680.727,1.02191
680.827,1.02403
680.927,1.02611
681.027,1.02816
681.127,1.03018
681.227,1.03216
681.327,1.03412
681.427,1.03604
681.527,1.03793
681.627,1.03979
681.727,1.04161
681.827,1.04341
681.927,1.04516
682.027,1.04689
682.127,1.04858
682.227,1.05024
682.327,1.05186
682.427,1.05345
682.527,1.05501
682.627,1.05653
682.727,1.05802
682.827,1.05947
682.927,1.06089
683.027,1.06227
683.127,1.06361
683.227,1.06493
683.327,1.0662
683.427,1.06744
683.527,1.06865
683.627,1.06982
683.727,1.07095
683.827,1.07205
683.927,1.07311
684.027,1.07414
684.127,1.07512
684.227,1.07608
684.327,1.07699
684.427,1.07787
684.527,1.07871
684.627,1.07952
684.727,1.08029
684.827,1.08102
684.927,1.08171
685.027,1.08237
685.127,1.08299
685.227,1.08357
685.327,1.08412
685.427,1.08463
685.527,1.0851
685.627,1.08553
685.727,1.08593
685.827,1.08629
685.927,1.08661
686.027,1.08689
686.127,1.08714
686.227,1.08734
686.327,1.08751
686.427,1.08764
686.527,1.08774
686.627,1.0878
686.727,1.08781
686.827,1.0878
686.927,1.08774
687.027,1.08764
687.127,1.08751
687.227,1.08734
687.327,1.08714
687.427,1.08689
687.527,1.08661
687.627,1.08629
687.727,1.08593
687.827,1.08553
687.927,1.0851
688.027,1.08463
688.127,1.08412
688.227,1.08357
688.327,1.08299
688.427,1.08237
688.527,1.08171
688.627,1.08102
688.727,1.08029
688.827,1.07952
688.927,1.07871
689.027,1.07787
689.127,1.07699
689.227,1.07608
689.327,1.07512
689.427,1.07414
689.527,1.07311
689.627,1.07205
689.727,1.07095
689.827,1.06982
689.927,1.06865
690.027,1.06744
690.127,1.0662
690.227,1.06493
690.327,1.06361
690.427,1.06227
690.527,1.06089
690.627,1.05947
690.727,1.05802
690.827,1.05653
690.927,1.05501
691.027,1.05345
691.127,1.05186
691.227,1.05024
691.327,1.04858
691.427,1.04689
691.527,1.04517
691.627,1.04341
691.727,1.04162
691.827,1.03979
691.927,1.03793
692.027,1.03604
692.127,1.03412
692.227,1.03217
692.327,1.03018
692.427,1.02816
692.527,1.02611
692.627,1.02403
692.727,1.02191
692.827,1.01977
692.927,1.01759
693.027,1.01539
693.127,1.01315
693.227,1.01089
693.327,1.00859
693.427,1.00626
693.527,1.00391
693.627,1.00152
693.727,0.999111
693.827,0.996668
693.927,0.994197
694.027,0.991698
694.127,0.98917
694.227,0.986615
694.327,0.984032
694.427,0.981422
694.527,0.978785
694.627,0.976121
694.727,0.973431
694.827,0.970714
694.927,0.967971
695.027,0.965202
695.127,0.962408
695.227,0.959589
695.327,0.956745
695.427,0.953876
695.527,0.950982
695.627,0.948065
695.727,0.945123
695.827,0.942159
695.927,0.93917
696.027,0.936159
696.127,0.933125
696.227,0.930068
696.327,0.92699
696.427,0.923889
696.527,0.920767
696.627,0.917624
696.727,0.914459
696.827,0.911274
696.927,0.908068
697.027,0.904842
697.127,0.901597
697.227,0.898332
697.327,0.895047
697.427,0.891744
697.527,0.888422
697.627,0.885081
697.727,0.881723
697.827,0.878347
697.927,0.874953
698.027,0.871542
698.127,0.868115
698.227,0.864671
698.327,0.86121
698.427,0.857734
698.527,0.854242
698.627,0.850735
698.727,0.847212
698.827,0.843675
698.927,0.840124
699.027,0.836558
699.127,0.832979
699.227,0.829386
699.327,0.82578
699.427,0.822162
699.527,0.81853
699.627,0.814887
699.727,0.811231
699.827,0.807564
699.927,0.803885
700.027,0.800196
700.127,0.796495
700.227,0.792785
700.327,0.789064
700.427,0.785333
700.527,0.781593
700.627,0.777844
700.727,0.774086
700.827,0.770319
700.927,0.766544
701.027,0.762761
701.127,0.75897
701.227,0.755172
701.327,0.751367
701.427,0.747555
701.527,0.743736
701.627,0.739912
701.727,0.736081
701.827,0.732245
701.927,0.728403
702.027,0.724557
702.127,0.720706
702.227,0.71685
702.327,0.712991
702.427,0.709127
702.527,0.70526
702.627,0.70139
702.727,0.697516
702.827,0.69364
702.927,0.689762
703.027,0.685881
703.127,0.681999
703.227,0.678115
703.327,0.67423
703.427,0.670343
703.527,0.666456
703.627,0.662569
703.727,0.658681
703.827,0.654794
703.927,0.650907
704.027,0.64702
704.127,0.643134
704.227,0.63925
704.327,0.635366
704.427,0.631485
704.527,0.627605
704.627,0.623728
704.727,0.619853
704.827,0.61598
704.927,0.612111
705.027,0.608245
705.127,0.604382
705.227,0.600523
705.327,0.596668
705.427,0.592817
705.527,0.58897
705.627,0.585128
705.727,0.581291
705.827,0.577459
705.927,0.573633
706.027,0.569812
706.127,0.565997
706.227,0.562187
706.327,0.558384
706.427,0.554588
706.527,0.550798
706.627,0.547015
706.727,0.54324
706.827,0.539471
706.927,0.53571
707.027,0.531957
707.127,0.528212
707.227,0.524475
707.327,0.520746
707.427,0.517026
707.527,0.513315
707.627,0.509612
707.727,0.505919
707.827,0.502235
707.927,0.498561
708.027,0.494896
708.127,0.491241
708.227,0.487596
708.327,0.483962
708.427,0.480338
708.527,0.476724
708.627,0.473121
708.727,0.46953
708.827,0.465949
708.927,0.462379
709.027,0.458821
709.127,0.455275
709.227,0.45174
709.327,0.448217
709.427,0.444706
709.527,0.441207
709.627,0.437721
709.727,0.434247
709.827,0.430786
709.927,0.427337
710.027,0.423902
710.127,0.420479
710.227,0.41707
710.327,0.413673
710.427,0.410291
710.527,0.406921
710.627,0.403566
710.727,0.400224
710.827,0.396896
710.927,0.393582
711.027,0.390282
711.127,0.386997
711.227,0.383726
711.327,0.380469
711.427,0.377227
711.527,0.373999
711.627,0.370786
711.727,0.367588
711.827,0.364405
711.927,0.361237
712.027,0.358084
712.127,0.354946
712.227,0.351824
712.327,0.348717
712.427,0.345625
712.527,0.342549
712.627,0.339488
712.727,0.336444
712.827,0.333414
712.927,0.330401
713.027,0.327403
713.127,0.324422
713.227,0.321456
713.327,0.318507
713.427,0.315573
713.527,0.312656
713.627,0.309755
713.727,0.30687
713.827,0.304002
713.927,0.30115
714.027,0.298314
714.127,0.295495
714.227,0.292692
714.327,0.289906
714.427,0.287136
714.527,0.284383
714.627,0.281646
714.727,0.278927
714.827,0.276223
714.927,0.273537
715.027,0.270867
715.127,0.268214
715.227,0.265578
715.327,0.262958
715.427,0.260356
715.527,0.25777
715.627,0.255201
715.727,0.252649
715.827,0.250113
715.927,0.247595
716.027,0.245093
716.127,0.242608
716.227,0.24014
716.327,0.237689
716.427,0.235255
716.527,0.232838
716.627,0.230437
716.727,0.228053
716.827,0.225686
716.927,0.223336
717.027,0.221003
717.127,0.218686
717.227,0.216387
717.327,0.214104
717.427,0.211837
717.527,0.209588
717.627,0.207355
717.727,0.205139
717.827,0.202939
717.927,0.200756
718.027,0.19859
718.127,0.19644
718.227,0.194307
718.327,0.19219
718.427,0.19009
718.527,0.188006
718.627,0.185938
718.727,0.183887
718.827,0.181852
718.927,0.179834
719.027,0.177831
719.127,0.175845
719.227,0.173875
719.327,0.171921
719.427,0.169984
719.527,0.168062
719.627,0.166156
719.727,0.164266
719.827,0.162392
719.927,0.160533
720.027,0.158691
720.127,0.156864
720.227,0.155053
720.327,0.153257
720.427,0.151477
720.527,0.149713
720.627,0.147963
720.727,0.14623
720.827,0.144511
720.927,0.142808
721.027,0.14112
721.127,0.139447
721.227,0.137789
721.327,0.136146
721.427,0.134518
721.527,0.132905
721.627,0.131306
721.727,0.129723
721.827,0.128154
721.927,0.126599
722.027,0.125059
722.127,0.123534
722.227,0.122023
722.327,0.120526
722.427,0.119043
722.527,0.117575
722.627,0.11612
722.727,0.11468
722.827,0.113254
722.927,0.111841
723.027,0.110442
723.127,0.109057
723.227,0.107686
723.327,0.106328
723.427,0.104984
723.527,0.103653
723.627,0.102335
723.727,0.10103
723.827,0.0997392
723.927,0.098461
724.027,0.0971958
724.127,0.0959436
724.227,0.0947042
724.327,0.0934775
724.427,0.0922636
724.527,0.0910622
724.627,0.0898734
724.727,0.088697
724.827,0.087533
724.927,0.0863812
725.027,0.0852417
725.127,0.0841142
725.227,0.0829988
725.327,0.0818954
725.427,0.0808038
725.527,0.0797239
725.627,0.0786558
725.727,0.0775993
725.827,0.0765543
725.927,0.0755208
726.027,0.0744987
726.127,0.0734878
726.227,0.0724881
726.327,0.0714996
726.427,0.0705221
726.527,0.0695555
726.627,0.0685998
726.727,0.0676549
726.827,0.0667206
726.927,0.065797
727.027,0.0648839
727.127,0.0639813
727.227,0.0630891
727.327,0.0622071
727.427,0.0613353
727.527,0.0604737
727.627,0.059622
727.727,0.0587804
727.827,0.0579486
727.927,0.0571265
728.027,0.0563142
728.127,0.0555115
728.227,0.0547184
728.327,0.0539347
728.427,0.0531604
728.527,0.0523954
728.627,0.0516396
728.727,0.050893
728.827,0.0501553
728.927,0.0494267
729.027,0.048707
729.127,0.0479961
729.227,0.0472939
729.327,0.0466003
729.427,0.0459154
729.527,0.0452389
729.627,0.0445709
729.727,0.0439112
729.827,0.0432598
729.927,0.0426165
730.027,0.0419814
730.127,0.0413542
730.227,0.0407351
730.327,0.0401238
730.427,0.0395203
730.527,0.0389246
730.627,0.0383365
730.727,0.0377559
730.827,0.0371829
730.927,0.0366173
731.027,0.036059
731.127,0.035508
731.227,0.0349643
731.327,0.0344276
731.427,0.0338981
731.527,0.0333755
731.627,0.0328598
731.727,0.0323509
731.827,0.0318489
731.927,0.0313535
732.027,0.0308648
732.127,0.0303826
732.227,0.029907
732.327,0.0294377
732.427,0.0289749
732.527,0.0285183
732.627,0.0280679
732.727,0.0276237
732.827,0.0271855
732.927,0.0267534
733.027,0.0263272
733.127,0.025907
733.227,0.0254925
733.327,0.0250838
733.427,0.0246808
733.527,0.0242835
733.627,0.0238917
733.727,0.0235054
733.827,0.0231245
733.927,0.0227491
734.027,0.0223789
734.127,0.022014
734.227,0.0216544
734.327,0.0212998
734.427,0.0209503
734.527,0.0206059
734.627,0.0202664
734.727,0.0199318
734.827,0.019602
734.927,0.0192771
735.027,0.0189568
735.127,0.0186413
735.227,0.0183303
735.327,0.0180239
735.427,0.017722
735.527,0.0174246
735.627,0.0171316
735.727,0.0168429
735.827,0.0165585
735.927,0.0162783
736.027,0.0160024
736.127,0.0157305
736.227,0.0154627
736.327,0.015199
736.427,0.0149393
736.527,0.0146834
736.627,0.0144315
736.727,0.0141834
736.827,0.013939
736.927,0.0136984
737.027,0.0134615
737.127,0.0132283
737.227,0.0129986
737.327,0.0127724
737.427,0.0125498
737.527,0.0123306
737.627,0.0121148
737.727,0.0119024
737.827,0.0116933
737.927,0.0114875
738.027,0.0112849
738.127,0.0110855
738.227,0.0108892
738.327,0.0106961
738.427,0.010506
738.527,0.0103189
738.627,0.0101348
738.727,0.00995363
738.827,0.00977538
738.927,0.00959998
739.027,0.0094274
739.127,0.0092576
739.227,0.00909054
739.327,0.00892619
739.427,0.00876451
739.527,0.00860546
739.627,0.00844899
739.727,0.00829509
739.827,0.00814371
739.927,0.00799481
740.027,0.00784836
740.127,0.00770433
740.227,0.00756267
740.327,0.00742337
740.427,0.00728637
740.527,0.00715166
740.627,0.0070192
740.727,0.00688894
740.827,0.00676087
740.927,0.00663496
741.027,0.00651116
741.127,0.00638944
741.227,0.00626979
741.327,0.00615216
741.427,0.00603653
741.527,0.00592287
741.627,0.00581115
741.727,0.00570133
741.827,0.0055934
741.927,0.00548732
742.027,0.00538306
742.127,0.00528061
742.227,0.00517992
742.327,0.00508097
742.427,0.00498375
742.527,0.00488821
742.627,0.00479434
742.727,0.00470211
742.827,0.00461149
742.927,0.00452246
743.027,0.00443499
743.127,0.00434907
743.227,0.00426466
743.327,0.00418175
743.427,0.00410031
743.527,0.00402031
743.627,0.00394174
743.727,0.00386456
743.827,0.00378877
743.927,0.00371434
744.027,0.00364124
744.127,0.00356945
744.227,0.00349896
744.327,0.00342974
744.427,0.00336178
744.527,0.00329504
744.627,0.00322952
744.727,0.0031652
744.827,0.00310204
744.927,0.00304004
745.027,0.00297918
745.127,0.00291943
745.227,0.00286079
745.327,0.00280322
745.427,0.00274672
745.527,0.00269126
745.627,0.00263683
745.727,0.00258341
745.827,0.00253098
745.927,0.00247954
746.027,0.00242905
746.127,0.00237951
746.227,0.0023309
746.327,0.0022832
746.427,0.00223641
746.527,0.00219049
746.627,0.00214544
746.727,0.00210125
746.827,0.0020579
746.927,0.00201537
747.027,0.00197365