File: ingan/robins_1999/in50/raman/curve_total_fit.dat
600.627,-2.9474
600.727,-2.94685
600.827,-2.9463
600.927,-2.94575
601.027,-2.9452
601.127,-2.94464
601.227,-2.94407
601.327,-2.94351
601.427,-2.94294
601.527,-2.94236
601.627,-2.94179
601.727,-2.94121
601.827,-2.94062
601.927,-2.94003
602.027,-2.93944
602.127,-2.93885
602.227,-2.93825
602.327,-2.93765
602.427,-2.93704
602.527,-2.93643
602.627,-2.93582
602.727,-2.9352
602.827,-2.93458
602.927,-2.93395
603.027,-2.93333
603.127,-2.93269
603.227,-2.93206
603.327,-2.93142
603.427,-2.93077
603.527,-2.93013
603.627,-2.92947
603.727,-2.92882
603.827,-2.92816
603.927,-2.9275
604.027,-2.92683
604.127,-2.92616
604.227,-2.92549
604.327,-2.92481
604.427,-2.92413
604.527,-2.92344
604.627,-2.92275
604.727,-2.92206
604.827,-2.92136
604.927,-2.92066
605.027,-2.91995
605.127,-2.91924
605.227,-2.91853
605.327,-2.91781
605.427,-2.91709
605.527,-2.91636
605.627,-2.91563
605.727,-2.9149
605.827,-2.91416
605.927,-2.91342
606.027,-2.91268
606.127,-2.91193
606.227,-2.91117
606.327,-2.91042
606.427,-2.90966
606.527,-2.90889
606.627,-2.90812
606.727,-2.90735
606.827,-2.90657
606.927,-2.90579
607.027,-2.905
607.127,-2.90421
607.227,-2.90342
607.327,-2.90262
607.427,-2.90182
607.527,-2.90101
607.627,-2.9002
607.727,-2.89939
607.827,-2.89857
607.927,-2.89775
608.027,-2.89692
608.127,-2.89609
608.227,-2.89526
608.327,-2.89442
608.427,-2.89357
608.527,-2.89273
608.627,-2.89188
608.727,-2.89102
608.827,-2.89016
608.927,-2.8893
609.027,-2.88843
609.127,-2.88756
609.227,-2.88668
609.327,-2.8858
609.427,-2.88492
609.527,-2.88403
609.627,-2.88313
609.727,-2.88224
609.827,-2.88134
609.927,-2.88043
610.027,-2.87952
610.127,-2.87861
610.227,-2.87769
610.327,-2.87677
610.427,-2.87584
610.527,-2.87491
610.627,-2.87398
610.727,-2.87304
610.827,-2.8721
610.927,-2.87115
611.027,-2.8702
611.127,-2.86925
611.227,-2.86829
611.327,-2.86733
611.427,-2.86636
611.527,-2.86539
611.627,-2.86441
611.727,-2.86343
611.827,-2.86245
611.927,-2.86146
612.027,-2.86047
612.127,-2.85947
612.227,-2.85847
612.327,-2.85747
612.427,-2.85646
612.527,-2.85545
612.627,-2.85443
612.727,-2.85341
612.827,-2.85239
612.927,-2.85136
613.027,-2.85033
613.127,-2.84929
613.227,-2.84825
613.327,-2.84721
613.427,-2.84616
613.527,-2.84511
613.627,-2.84405
613.727,-2.84299
613.827,-2.84192
613.927,-2.84085
614.027,-2.83978
614.127,-2.83871
614.227,-2.83762
614.327,-2.83654
614.427,-2.83545
614.527,-2.83436
614.627,-2.83326
614.727,-2.83216
614.827,-2.83106
614.927,-2.82995
615.027,-2.82884
615.127,-2.82772
615.227,-2.8266
615.327,-2.82548
615.427,-2.82435
615.527,-2.82322
615.627,-2.82208
615.727,-2.82095
615.827,-2.8198
615.927,-2.81866
616.027,-2.81751
616.127,-2.81635
616.227,-2.81519
616.327,-2.81403
616.427,-2.81287
616.527,-2.8117
616.627,-2.81053
616.727,-2.80935
616.827,-2.80817
616.927,-2.80699
617.027,-2.8058
617.127,-2.80461
617.227,-2.80341
617.327,-2.80222
617.427,-2.80101
617.527,-2.79981
617.627,-2.7986
617.727,-2.79739
617.827,-2.79617
617.927,-2.79495
618.027,-2.79373
618.127,-2.7925
618.227,-2.79127
618.327,-2.79004
618.427,-2.7888
618.527,-2.78756
618.627,-2.78632
618.727,-2.78507
618.827,-2.78382
618.927,-2.78257
619.027,-2.78131
619.127,-2.78005
619.227,-2.77879
619.327,-2.77752
619.427,-2.77625
619.527,-2.77498
619.627,-2.77371
619.727,-2.77243
619.827,-2.77114
619.927,-2.76986
620.027,-2.76857
620.127,-2.76728
620.227,-2.76598
620.327,-2.76469
620.427,-2.76338
620.527,-2.76208
620.627,-2.76077
620.727,-2.75946
620.827,-2.75815
620.927,-2.75684
621.027,-2.75552
621.127,-2.7542
621.227,-2.75287
621.327,-2.75155
621.427,-2.75022
621.527,-2.74888
621.627,-2.74755
621.727,-2.74621
621.827,-2.74487
621.927,-2.74353
622.027,-2.74218
622.127,-2.74083
622.227,-2.73948
622.327,-2.73813
622.427,-2.73677
622.527,-2.73541
622.627,-2.73405
622.727,-2.73269
622.827,-2.73132
622.927,-2.72995
623.027,-2.72858
623.127,-2.72721
623.227,-2.72583
623.327,-2.72445
623.427,-2.72307
623.527,-2.72169
623.627,-2.72031
623.727,-2.71892
623.827,-2.71753
623.927,-2.71614
624.027,-2.71474
624.127,-2.71335
624.227,-2.71195
624.327,-2.71055
624.427,-2.70915
624.527,-2.70774
624.627,-2.70634
624.727,-2.70493
624.827,-2.70352
624.927,-2.70211
625.027,-2.7007
625.127,-2.69928
625.227,-2.69786
625.327,-2.69644
625.427,-2.69502
625.527,-2.6936
625.627,-2.69218
625.727,-2.69075
625.827,-2.68932
625.927,-2.68789
626.027,-2.68646
626.127,-2.68503
626.227,-2.6836
626.327,-2.68216
626.427,-2.68073
626.527,-2.67929
626.627,-2.67785
626.727,-2.67641
626.827,-2.67496
626.927,-2.67352
627.027,-2.67208
627.127,-2.67063
627.227,-2.66918
627.327,-2.66773
627.427,-2.66628
627.527,-2.66483
627.627,-2.66338
627.727,-2.66193
627.827,-2.66047
627.927,-2.65902
628.027,-2.65756
628.127,-2.6561
628.227,-2.65464
628.327,-2.65318
628.427,-2.65172
628.527,-2.65026
628.627,-2.6488
628.727,-2.64734
628.827,-2.64587
628.927,-2.64441
629.027,-2.64294
629.127,-2.64148
629.227,-2.64001
629.327,-2.63854
629.427,-2.63707
629.527,-2.6356
629.627,-2.63414
629.727,-2.63267
629.827,-2.63119
629.927,-2.62972
630.027,-2.62825
630.127,-2.62678
630.227,-2.62531
630.327,-2.62383
630.427,-2.62236
630.527,-2.62089
630.627,-2.61941
630.727,-2.61794
630.827,-2.61646
630.927,-2.61499
631.027,-2.61351
631.127,-2.61204
631.227,-2.61056
631.327,-2.60909
631.427,-2.60761
631.527,-2.60613
631.627,-2.60466
631.727,-2.60318
631.827,-2.60171
631.927,-2.60023
632.027,-2.59875
632.127,-2.59728
632.227,-2.5958
632.327,-2.59432
632.427,-2.59285
632.527,-2.59137
632.627,-2.58989
632.727,-2.58842
632.827,-2.58694
632.927,-2.58546
633.027,-2.58399
633.127,-2.58251
633.227,-2.58104
633.327,-2.57956
633.427,-2.57809
633.527,-2.57661
633.627,-2.57514
633.727,-2.57366
633.827,-2.57219
633.927,-2.57071
634.027,-2.56924
634.127,-2.56777
634.227,-2.5663
634.327,-2.56482
634.427,-2.56335
634.527,-2.56188
634.627,-2.56041
634.727,-2.55894
634.827,-2.55747
634.927,-2.556
635.027,-2.55453
635.127,-2.55306
635.227,-2.55159
635.327,-2.55012
635.427,-2.54865
635.527,-2.54719
635.627,-2.54572
635.727,-2.54425
635.827,-2.54279
635.927,-2.54132
636.027,-2.53986
636.127,-2.53839
636.227,-2.53693
636.327,-2.53547
636.427,-2.534
636.527,-2.53254
636.627,-2.53108
636.727,-2.52962
636.827,-2.52816
636.927,-2.5267
637.027,-2.52524
637.127,-2.52378
637.227,-2.52232
637.327,-2.52087
637.427,-2.51941
637.527,-2.51795
637.627,-2.5165
637.727,-2.51504
637.827,-2.51358
637.927,-2.51213
638.027,-2.51068
638.127,-2.50922
638.227,-2.50777
638.327,-2.50632
638.427,-2.50487
638.527,-2.50341
638.627,-2.50196
638.727,-2.50051
638.827,-2.49906
638.927,-2.49761
639.027,-2.49616
639.127,-2.49471
639.227,-2.49327
639.327,-2.49182
639.427,-2.49037
639.527,-2.48892
639.627,-2.48748
639.727,-2.48603
639.827,-2.48458
639.927,-2.48314
640.027,-2.48169
640.127,-2.48025
640.227,-2.4788
640.327,-2.47736
640.427,-2.47591
640.527,-2.47447
640.627,-2.47303
640.727,-2.47158
640.827,-2.47014
640.927,-2.46869
641.027,-2.46725
641.127,-2.46581
641.227,-2.46436
641.327,-2.46292
641.427,-2.46148
641.527,-2.46003
641.627,-2.45859
641.727,-2.45715
641.827,-2.4557
641.927,-2.45426
642.027,-2.45281
642.127,-2.45137
642.227,-2.44993
642.327,-2.44848
642.427,-2.44704
642.527,-2.44559
642.627,-2.44414
642.727,-2.4427
642.827,-2.44125
642.927,-2.4398
643.027,-2.43836
643.127,-2.43691
643.227,-2.43546
643.327,-2.43401
643.427,-2.43256
643.527,-2.43111
643.627,-2.42966
643.727,-2.42821
643.827,-2.42675
643.927,-2.4253
644.027,-2.42384
644.127,-2.42239
644.227,-2.42093
644.327,-2.41947
644.427,-2.41801
644.527,-2.41655
644.627,-2.41509
644.727,-2.41363
644.827,-2.41217
644.927,-2.4107
645.027,-2.40924
645.127,-2.40777
645.227,-2.4063
645.327,-2.40483
645.427,-2.40336
645.527,-2.40188
645.627,-2.40041
645.727,-2.39893
645.827,-2.39745
645.927,-2.39597
646.027,-2.39449
646.127,-2.393
646.227,-2.39152
646.327,-2.39003
646.427,-2.38854
646.527,-2.38704
646.627,-2.38555
646.727,-2.38405
646.827,-2.38255
646.927,-2.38105
647.027,-2.37954
647.127,-2.37804
647.227,-2.37653
647.327,-2.37502
647.427,-2.3735
647.527,-2.37198
647.627,-2.37046
647.727,-2.36894
647.827,-2.36741
647.927,-2.36588
648.027,-2.36435
648.127,-2.36282
648.227,-2.36128
648.327,-2.35974
648.427,-2.35819
648.527,-2.35664
648.627,-2.35509
648.727,-2.35354
648.827,-2.35198
648.927,-2.35042
649.027,-2.34885
649.127,-2.34728
649.227,-2.34571
649.327,-2.34413
649.427,-2.34255
649.527,-2.34097
649.627,-2.33938
649.727,-2.33778
649.827,-2.33619
649.927,-2.33458
650.027,-2.33298
650.127,-2.33137
650.227,-2.32975
650.327,-2.32813
650.427,-2.32651
650.527,-2.32488
650.627,-2.32325
650.727,-2.32161
650.827,-2.31997
650.927,-2.31832
651.027,-2.31667
651.127,-2.31501
651.227,-2.31335
651.327,-2.31168
651.427,-2.31001
651.527,-2.30833
651.627,-2.30665
651.727,-2.30496
651.827,-2.30326
651.927,-2.30156
652.027,-2.29986
652.127,-2.29815
652.227,-2.29643
652.327,-2.29471
652.427,-2.29298
652.527,-2.29125
652.627,-2.2895
652.727,-2.28776
652.827,-2.28601
652.927,-2.28425
653.027,-2.28248
653.127,-2.28071
653.227,-2.27893
653.327,-2.27715
653.427,-2.27536
653.527,-2.27356
653.627,-2.27176
653.727,-2.26995
653.827,-2.26814
653.927,-2.26631
654.027,-2.26448
654.127,-2.26265
654.227,-2.2608
654.327,-2.25895
654.427,-2.2571
654.527,-2.25523
654.627,-2.25336
654.727,-2.25148
654.827,-2.2496
654.927,-2.2477
655.027,-2.2458
655.127,-2.24389
655.227,-2.24198
655.327,-2.24006
655.427,-2.23813
655.527,-2.23619
655.627,-2.23425
655.727,-2.2323
655.827,-2.23034
655.927,-2.22837
656.027,-2.22639
656.127,-2.22441
656.227,-2.22242
656.327,-2.22042
656.427,-2.21842
656.527,-2.2164
656.627,-2.21438
656.727,-2.21235
656.827,-2.21031
656.927,-2.20827
657.027,-2.20622
657.127,-2.20415
657.227,-2.20209
657.327,-2.20001
657.427,-2.19792
657.527,-2.19583
657.627,-2.19373
657.727,-2.19162
657.827,-2.1895
657.927,-2.18738
658.027,-2.18524
658.127,-2.1831
658.227,-2.18095
658.327,-2.17879
658.427,-2.17663
658.527,-2.17445
658.627,-2.17227
658.727,-2.17008
658.827,-2.16788
658.927,-2.16567
659.027,-2.16346
659.127,-2.16123
659.227,-2.159
659.327,-2.15676
659.427,-2.15451
659.527,-2.15226
659.627,-2.14999
659.727,-2.14772
659.827,-2.14544
659.927,-2.14315
660.027,-2.14086
660.127,-2.13855
660.227,-2.13624
660.327,-2.13392
660.427,-2.13159
660.527,-2.12925
660.627,-2.12691
660.727,-2.12456
660.827,-2.1222
660.927,-2.11983
661.027,-2.11746
661.127,-2.11507
661.227,-2.11268
661.327,-2.11029
661.427,-2.10788
661.527,-2.10547
661.627,-2.10305
661.727,-2.10062
661.827,-2.09818
661.927,-2.09574
662.027,-2.09329
662.127,-2.09084
662.227,-2.08837
662.327,-2.0859
662.427,-2.08343
662.527,-2.08094
662.627,-2.07845
662.727,-2.07595
662.827,-2.07345
662.927,-2.07094
663.027,-2.06842
663.127,-2.06589
663.227,-2.06336
663.327,-2.06083
663.427,-2.05829
663.527,-2.05574
663.627,-2.05318
663.727,-2.05062
663.827,-2.04806
663.927,-2.04548
664.027,-2.04291
664.127,-2.04032
664.227,-2.03774
664.327,-2.03514
664.427,-2.03254
664.527,-2.02994
664.627,-2.02733
664.727,-2.02472
664.827,-2.0221
664.927,-2.01948
665.027,-2.01685
665.127,-2.01422
665.227,-2.01159
665.327,-2.00895
665.427,-2.0063
665.527,-2.00366
665.627,-2.00101
665.727,-1.99835
665.827,-1.9957
665.927,-1.99304
666.027,-1.99037
666.127,-1.98771
666.227,-1.98504
666.327,-1.98237
666.427,-1.97969
666.527,-1.97701
666.627,-1.97434
666.727,-1.97166
666.827,-1.96897
666.927,-1.96629
667.027,-1.96361
667.127,-1.96092
667.227,-1.95823
667.327,-1.95554
667.427,-1.95285
667.527,-1.95016
667.627,-1.94747
667.727,-1.94478
667.827,-1.94209
667.927,-1.9394
668.027,-1.93671
668.127,-1.93402
668.227,-1.93133
668.327,-1.92864
668.427,-1.92596
668.527,-1.92327
668.627,-1.92059
668.727,-1.91791
668.827,-1.91522
668.927,-1.91255
669.027,-1.90987
669.127,-1.9072
669.227,-1.90453
669.327,-1.90186
669.427,-1.89919
669.527,-1.89653
669.627,-1.89387
669.727,-1.89122
669.827,-1.88857
669.927,-1.88592
670.027,-1.88328
670.127,-1.88064
670.227,-1.87801
670.327,-1.87538
670.427,-1.87276
670.527,-1.87015
670.627,-1.86754
670.727,-1.86493
670.827,-1.86233
670.927,-1.85974
671.027,-1.85716
671.127,-1.85458
671.227,-1.85201
671.327,-1.84945
671.427,-1.84689
671.527,-1.84434
671.627,-1.84181
671.727,-1.83927
671.827,-1.83675
671.927,-1.83424
672.027,-1.83173
672.127,-1.82924
672.227,-1.82675
672.327,-1.82428
672.427,-1.82181
672.527,-1.81936
672.627,-1.81692
672.727,-1.81448
672.827,-1.81206
672.927,-1.80965
673.027,-1.80725
673.127,-1.80486
673.227,-1.80249
673.327,-1.80013
673.427,-1.79778
673.527,-1.79544
673.627,-1.79312
673.727,-1.79081
673.827,-1.78851
673.927,-1.78623
674.027,-1.78396
674.127,-1.7817
674.227,-1.77946
674.327,-1.77724
674.427,-1.77503
674.527,-1.77284
674.627,-1.77066
674.727,-1.7685
674.827,-1.76635
674.927,-1.76422
675.027,-1.76211
675.127,-1.76002
675.227,-1.75794
675.327,-1.75588
675.427,-1.75383
675.527,-1.75181
675.627,-1.7498
675.727,-1.74782
675.827,-1.74585
675.927,-1.7439
676.027,-1.74197
676.127,-1.74006
676.227,-1.73817
676.327,-1.73629
676.427,-1.73444
676.527,-1.73261
676.627,-1.7308
676.727,-1.72902
676.827,-1.72725
676.927,-1.7255
677.027,-1.72378
677.127,-1.72208
677.227,-1.7204
677.327,-1.71874
677.427,-1.71711
677.527,-1.7155
677.627,-1.71391
677.727,-1.71235
677.827,-1.71081
677.927,-1.70929
678.027,-1.7078
678.127,-1.70633
678.227,-1.70489
678.327,-1.70347
678.427,-1.70208
678.527,-1.70071
678.627,-1.69936
678.727,-1.69805
678.827,-1.69676
678.927,-1.69549
679.027,-1.69426
679.127,-1.69304
679.227,-1.69186
679.327,-1.6907
679.427,-1.68957
679.527,-1.68847
679.627,-1.68739
679.727,-1.68635
679.827,-1.68533
679.927,-1.68434
680.027,-1.68337
680.127,-1.68244
680.227,-1.68153
680.327,-1.68066
680.427,-1.67981
680.527,-1.67899
680.627,-1.6782
680.727,-1.67745
680.827,-1.67672
680.927,-1.67602
681.027,-1.67535
681.127,-1.67471
681.227,-1.67411
681.327,-1.67353
681.427,-1.67299
681.527,-1.67247
681.627,-1.67199
681.727,-1.67154
681.827,-1.67112
681.927,-1.67073
682.027,-1.67037
682.127,-1.67005
682.227,-1.66975
682.327,-1.66949
682.427,-1.66926
682.527,-1.66907
682.627,-1.6689
682.727,-1.66877
682.827,-1.66868
682.927,-1.66861
683.027,-1.66858
683.127,-1.66858
683.227,-1.66862
683.327,-1.66868
683.427,-1.66878
683.527,-1.66892
683.627,-1.66909
683.727,-1.66929
683.827,-1.66953
683.927,-1.6698
684.027,-1.6701
684.127,-1.67044
684.227,-1.67081
684.327,-1.67122
684.427,-1.67166
684.527,-1.67213
684.627,-1.67264
684.727,-1.67319
684.827,-1.67376
684.927,-1.67438
685.027,-1.67503
685.127,-1.67571
685.227,-1.67642
685.327,-1.67717
685.427,-1.67796
685.527,-1.67878
685.627,-1.67964
685.727,-1.68053
685.827,-1.68145
685.927,-1.68241
686.027,-1.68341
686.127,-1.68444
686.227,-1.6855
686.327,-1.6866
686.427,-1.68773
686.527,-1.6889
686.627,-1.69011
686.727,-1.69134
686.827,-1.69262
686.927,-1.69392
687.027,-1.69527
687.127,-1.69664
687.227,-1.69805
687.327,-1.6995
687.427,-1.70098
687.527,-1.7025
687.627,-1.70405
687.727,-1.70563
687.827,-1.70725
687.927,-1.7089
688.027,-1.71059
688.127,-1.71231
688.227,-1.71406
688.327,-1.71585
688.427,-1.71767
688.527,-1.71953
688.627,-1.72142
688.727,-1.72334
688.827,-1.7253
688.927,-1.72729
689.027,-1.72932
689.127,-1.73137
689.227,-1.73346
689.327,-1.73559
689.427,-1.73774
689.527,-1.73993
689.627,-1.74215
689.727,-1.74441
689.827,-1.7467
689.927,-1.74901
690.027,-1.75137
690.127,-1.75375
690.227,-1.75616
690.327,-1.75861
690.427,-1.76109
690.527,-1.7636
690.627,-1.76614
690.727,-1.76871
690.827,-1.77131
690.927,-1.77395
691.027,-1.77661
691.127,-1.7793
691.227,-1.78203
691.327,-1.78478
691.427,-1.78757
691.527,-1.79038
691.627,-1.79323
691.727,-1.7961
691.827,-1.799
691.927,-1.80193
692.027,-1.80489
692.127,-1.80788
692.227,-1.8109
692.327,-1.81395
692.427,-1.81702
692.527,-1.82012
692.627,-1.82325
692.727,-1.8264
692.827,-1.82959
692.927,-1.8328
693.027,-1.83603
693.127,-1.83929
693.227,-1.84258
693.327,-1.8459
693.427,-1.84924
693.527,-1.8526
693.627,-1.85599
693.727,-1.85941
693.827,-1.86285
693.927,-1.86632
694.027,-1.86981
694.127,-1.87332
694.227,-1.87686
694.327,-1.88042
694.427,-1.884
694.527,-1.88761
694.627,-1.89124
694.727,-1.89489
694.827,-1.89856
694.927,-1.90226
695.027,-1.90598
695.127,-1.90972
695.227,-1.91348
695.327,-1.91726
695.427,-1.92106
695.527,-1.92488
695.627,-1.92873
695.727,-1.93259
695.827,-1.93647
695.927,-1.94037
696.027,-1.94429
696.127,-1.94823
696.227,-1.95218
696.327,-1.95616
696.427,-1.96015
696.527,-1.96416
696.627,-1.96819
696.727,-1.97223
696.827,-1.97629
696.927,-1.98037
697.027,-1.98446
697.127,-1.98857
697.227,-1.99269
697.327,-1.99683
697.427,-2.00099
697.527,-2.00516
697.627,-2.00934
697.727,-2.01354
697.827,-2.01775
697.927,-2.02197
698.027,-2.02621
698.127,-2.03046
698.227,-2.03472
698.327,-2.03899
698.427,-2.04328
698.527,-2.04758
698.627,-2.05189
698.727,-2.05621
698.827,-2.06054
698.927,-2.06488
699.027,-2.06923
699.127,-2.07359
699.227,-2.07796
699.327,-2.08234
699.427,-2.08673
699.527,-2.09112
699.627,-2.09553
699.727,-2.09994
699.827,-2.10436
699.927,-2.10879
700.027,-2.11322
700.127,-2.11766
700.227,-2.12211
700.327,-2.12656
700.427,-2.13102
700.527,-2.13549
700.627,-2.13996
700.727,-2.14444
700.827,-2.14892
700.927,-2.1534
701.027,-2.15789
701.127,-2.16238
701.227,-2.16688
701.327,-2.17138
701.427,-2.17588
701.527,-2.18038
701.627,-2.18489
701.727,-2.1894
701.827,-2.19391
701.927,-2.19842
702.027,-2.20293
702.127,-2.20745
702.227,-2.21196
702.327,-2.21647
702.427,-2.22099
702.527,-2.2255
702.627,-2.23002
702.727,-2.23453
702.827,-2.23904
702.927,-2.24355
703.027,-2.24806
703.127,-2.25257
703.227,-2.25707
703.327,-2.26158
703.427,-2.26608
703.527,-2.27057
703.627,-2.27507
703.727,-2.27956
703.827,-2.28404
703.927,-2.28853
704.027,-2.293
704.127,-2.29748
704.227,-2.30195
704.327,-2.30641
704.427,-2.31087
704.527,-2.31532
704.627,-2.31977
704.727,-2.32421
704.827,-2.32865
704.927,-2.33307
705.027,-2.3375
705.127,-2.34191
705.227,-2.34632
705.327,-2.35072
705.427,-2.35511
705.527,-2.35949
705.627,-2.36387
705.727,-2.36824
705.827,-2.3726
705.927,-2.37695
706.027,-2.38129
706.127,-2.38562
706.227,-2.38995
706.327,-2.39426
706.427,-2.39856
706.527,-2.40286
706.627,-2.40714
706.727,-2.41141
706.827,-2.41568
706.927,-2.41993
707.027,-2.42417
707.127,-2.4284
707.227,-2.43261
707.327,-2.43682
707.427,-2.44101
707.527,-2.4452
707.627,-2.44937
707.727,-2.45352
707.827,-2.45767
707.927,-2.4618
708.027,-2.46592
708.127,-2.47003
708.227,-2.47412
708.327,-2.4782
708.427,-2.48227
708.527,-2.48632
708.627,-2.49036
708.727,-2.49438
708.827,-2.4984
708.927,-2.50239
709.027,-2.50637
709.127,-2.51034
709.227,-2.51429
709.327,-2.51823
709.427,-2.52215
709.527,-2.52606
709.627,-2.52995
709.727,-2.53383
709.827,-2.53769
709.927,-2.54154
710.027,-2.54537
710.127,-2.54918
710.227,-2.55298
710.327,-2.55676
710.427,-2.56053
710.527,-2.56428
710.627,-2.56801
710.727,-2.57173
710.827,-2.57543
710.927,-2.57911
711.027,-2.58277
711.127,-2.58642
711.227,-2.59006
711.327,-2.59367
711.427,-2.59727
711.527,-2.60085
711.627,-2.60441
711.727,-2.60796
711.827,-2.61148
711.927,-2.61499
712.027,-2.61849
712.127,-2.62196
712.227,-2.62542
712.327,-2.62885
712.427,-2.63228
712.527,-2.63568
712.627,-2.63906
712.727,-2.64243
712.827,-2.64578
712.927,-2.64911
713.027,-2.65242
713.127,-2.65571
713.227,-2.65898
713.327,-2.66224
713.427,-2.66548
713.527,-2.6687
713.627,-2.6719
713.727,-2.67508
713.827,-2.67824
713.927,-2.68138
714.027,-2.68451
714.127,-2.68762
714.227,-2.6907
714.327,-2.69377
714.427,-2.69682
714.527,-2.69985
714.627,-2.70287
714.727,-2.70586
714.827,-2.70884
714.927,-2.71179
715.027,-2.71473
715.127,-2.71765
715.227,-2.72054
715.327,-2.72342
715.427,-2.72628
715.527,-2.72913
715.627,-2.73195
715.727,-2.73475
715.827,-2.73754
715.927,-2.7403
716.027,-2.74305
716.127,-2.74578
716.227,-2.74849
716.327,-2.75118
716.427,-2.75385
716.527,-2.7565
716.627,-2.75914
716.727,-2.76175
716.827,-2.76435
716.927,-2.76693
717.027,-2.76948
717.127,-2.77202
717.227,-2.77455
717.327,-2.77705
717.427,-2.77953
717.527,-2.782
717.627,-2.78444
717.727,-2.78687
717.827,-2.78928
717.927,-2.79167
718.027,-2.79405
718.127,-2.7964
718.227,-2.79874
718.327,-2.80106
718.427,-2.80336
718.527,-2.80564
718.627,-2.8079
718.727,-2.81015
718.827,-2.81237
718.927,-2.81458
719.027,-2.81677
719.127,-2.81895
719.227,-2.8211
719.327,-2.82324
719.427,-2.82536
719.527,-2.82746
719.627,-2.82955
719.727,-2.83161
719.827,-2.83366
719.927,-2.8357
720.027,-2.83771
720.127,-2.83971
720.227,-2.84169
720.327,-2.84365
720.427,-2.8456
720.527,-2.84753
720.627,-2.84944
720.727,-2.85134
720.827,-2.85321
720.927,-2.85508
721.027,-2.85692
721.127,-2.85875
721.227,-2.86056
721.327,-2.86236
721.427,-2.86414
721.527,-2.8659
721.627,-2.86765
721.727,-2.86938
721.827,-2.87109
721.927,-2.87279
722.027,-2.87447
722.127,-2.87614
722.227,-2.87779
722.327,-2.87943
722.427,-2.88105
722.527,-2.88265
722.627,-2.88424
722.727,-2.88582
722.827,-2.88738
722.927,-2.88892
723.027,-2.89045
723.127,-2.89196
723.227,-2.89346
723.327,-2.89494
723.427,-2.89641
723.527,-2.89787
723.627,-2.89931
723.727,-2.90073
723.827,-2.90215
723.927,-2.90354
724.027,-2.90493
724.127,-2.90629
724.227,-2.90765
724.327,-2.90899
724.427,-2.91032
724.527,-2.91163
724.627,-2.91293
724.727,-2.91422
724.827,-2.91549
724.927,-2.91675
725.027,-2.91799
725.127,-2.91923
725.227,-2.92045
725.327,-2.92165
725.427,-2.92285
725.527,-2.92403
725.627,-2.9252
725.727,-2.92635
725.827,-2.9275
725.927,-2.92863
726.027,-2.92974
726.127,-2.93085
726.227,-2.93194
726.327,-2.93303
726.427,-2.9341
726.527,-2.93515
726.627,-2.9362
726.727,-2.93723
726.827,-2.93826
726.927,-2.93927
727.027,-2.94027
727.127,-2.94126
727.227,-2.94223
727.327,-2.9432
727.427,-2.94416
727.527,-2.9451
727.627,-2.94603
727.727,-2.94695
727.827,-2.94787
727.927,-2.94877
728.027,-2.94966
728.127,-2.95054
728.227,-2.95141
728.327,-2.95227
728.427,-2.95312
728.527,-2.95395
728.627,-2.95478
728.727,-2.9556
728.827,-2.95641
728.927,-2.95721
729.027,-2.958
729.127,-2.95878
729.227,-2.95955
729.327,-2.96031
729.427,-2.96107
729.527,-2.96181
729.627,-2.96254
729.727,-2.96327
729.827,-2.96398
729.927,-2.96469
730.027,-2.96539
730.127,-2.96608
730.227,-2.96676
730.327,-2.96743
730.427,-2.96809
730.527,-2.96875
730.627,-2.9694
730.727,-2.97003
730.827,-2.97066
730.927,-2.97129
731.027,-2.9719
731.127,-2.97251
731.227,-2.97311
731.327,-2.9737
731.427,-2.97428
731.527,-2.97486
731.627,-2.97543
731.727,-2.97599
731.827,-2.97654
731.927,-2.97709
732.027,-2.97763
732.127,-2.97816
732.227,-2.97868
732.327,-2.9792
732.427,-2.97971
732.527,-2.98021
732.627,-2.98071
732.727,-2.9812
732.827,-2.98169
732.927,-2.98216
733.027,-2.98264
733.127,-2.9831
733.227,-2.98356
733.327,-2.98401
733.427,-2.98446
733.527,-2.9849
733.627,-2.98533
733.727,-2.98576
733.827,-2.98618
733.927,-2.9866
734.027,-2.98701
734.127,-2.98741
734.227,-2.98781
734.327,-2.9882
734.427,-2.98859
734.527,-2.98897
734.627,-2.98935
734.727,-2.98972
734.827,-2.99009
734.927,-2.99045
735.027,-2.9908
735.127,-2.99115
735.227,-2.9915
735.327,-2.99184
735.427,-2.99217
735.527,-2.99251
735.627,-2.99283
735.727,-2.99315
735.827,-2.99347
735.927,-2.99378
736.027,-2.99409
736.127,-2.99439
736.227,-2.99469
736.327,-2.99499
736.427,-2.99528
736.527,-2.99556
736.627,-2.99584
736.727,-2.99612
736.827,-2.99639
736.927,-2.99666
737.027,-2.99693
737.127,-2.99719
737.227,-2.99744
737.327,-2.9977
737.427,-2.99795
737.527,-2.99819
737.627,-2.99843
737.727,-2.99867
737.827,-2.99891
737.927,-2.99914
738.027,-2.99936
738.127,-2.99959
738.227,-2.99981
738.327,-3.00002
738.427,-3.00024
738.527,-3.00045
738.627,-3.00066
738.727,-3.00086
738.827,-3.00106
738.927,-3.00126
739.027,-3.00145
739.127,-3.00164
739.227,-3.00183
739.327,-3.00202
739.427,-3.0022
739.527,-3.00238
739.627,-3.00256
739.727,-3.00273
739.827,-3.0029
739.927,-3.00307
740.027,-3.00323
740.127,-3.0034
740.227,-3.00356
740.327,-3.00372
740.427,-3.00387
740.527,-3.00402
740.627,-3.00417
740.727,-3.00432
740.827,-3.00447
740.927,-3.00461
741.027,-3.00475
741.127,-3.00489
741.227,-3.00503
741.327,-3.00516
741.427,-3.00529
741.527,-3.00542
741.627,-3.00555
741.727,-3.00567
741.827,-3.0058
741.927,-3.00592
742.027,-3.00604
742.127,-3.00615
742.227,-3.00627
742.327,-3.00638
742.427,-3.00649
742.527,-3.0066
742.627,-3.00671
742.727,-3.00682
742.827,-3.00692
742.927,-3.00702
743.027,-3.00712
743.127,-3.00722
743.227,-3.00732
743.327,-3.00741
743.427,-3.00751
743.527,-3.0076
743.627,-3.00769
743.727,-3.00778
743.827,-3.00787
743.927,-3.00795
744.027,-3.00804
744.127,-3.00812
744.227,-3.0082
744.327,-3.00828
744.427,-3.00836
744.527,-3.00844
744.627,-3.00851
744.727,-3.00859
744.827,-3.00866
744.927,-3.00873
745.027,-3.00881
745.127,-3.00888
745.227,-3.00894
745.327,-3.00901
745.427,-3.00908
745.527,-3.00914
745.627,-3.0092
745.727,-3.00927
745.827,-3.00933
745.927,-3.00939
746.027,-3.00945
746.127,-3.00951
746.227,-3.00956
746.327,-3.00962
746.427,-3.00967
746.527,-3.00973
746.627,-3.00978
746.727,-3.00983
746.827,-3.00988
746.927,-3.00993
747.027,-3.00998