File: inn/haddad_2002/365C/raman_peaks.csv
399.622, 0.701529
400.315, 0.693062
401.122, 0.683748
401.786, 0.675281
402.738, 0.676636
403.43, 0.678668
403.776, 0.690522
404.815, 0.698989
405.853, 0.700118
406.805, 0.693062
407.93, 0.683748
408.969, 0.677539
410.007, 0.680361
411.046, 0.690522
411.998, 0.698989
413.123, 0.69786
413.815, 0.687558
414.507, 0.674434
415.027, 0.666814
415.615, 0.678329
416.671, 0.686288
417.536, 0.693908
417.623, 0.704069
417.969, 0.715499
418.661, 0.721849
419.354, 0.715358
419.977, 0.702037
420.479, 0.688828
420.738, 0.665685
420.825, 0.675281
421.431, 0.670201
421.431, 0.689675
421.95, 0.698989
422.192, 0.710165
423.161, 0.711971
423.854, 0.703222
424.459, 0.689675
424.979, 0.680361
425.931, 0.686006
426.623, 0.694755
426.969, 0.709149
427.315, 0.717616
427.731, 0.728454
428.7, 0.739065
429.738, 0.736808
430.777, 0.735396
431.815, 0.73963
432.854, 0.73963
433.892, 0.742452
434.931, 0.745274
435.883, 0.740477
437.008, 0.735679
438.046, 0.748097
439.085, 0.755294
440.054, 0.764353
440.816, 0.776461
441.508, 0.789161
442.2, 0.799745
442.893, 0.809905
443.585, 0.820066
444.277, 0.830649
444.854, 0.840669
444.97, 0.854216
445.316, 0.876794
445.316, 0.866634
445.731, 0.886277
446.7, 0.888083
447.825, 0.889071
448.777, 0.897115
449.47, 0.908968
450.162, 0.920258
450.508, 0.930982
451.2, 0.940296
451.547, 0.926749
451.893, 0.913625
451.893, 0.937756
452.354, 0.90163
452.931, 0.894292
453.693, 0.886954
454.593, 0.893728
455.701, 0.902195
456.739, 0.905017
457.777, 0.908968
458.903, 0.913202
459.785, 0.921499
460.547, 0.929289
461.672, 0.925056
462.624, 0.929289
463.749, 0.933523
464.631, 0.941143
465.047, 0.958077
466.085, 0.965415
467.055, 0.972301
467.816, 0.987288
468.335, 0.996178
468.509, 1.00662
468.941, 1.01735
469.201, 1.0292
469.893, 1.03823
470.585, 1.0474
471.278, 1.06053
471.97, 1.07365
472.662, 1.08423
473.355, 1.09609
474.047, 1.11006
474.739, 1.12572
475.259, 1.13419
475.432, 1.14604
475.778, 1.15451
476.124, 1.16425
476.886, 1.17449
477.768, 1.17314
478.616, 1.16569
479.24, 1.16975
479.586, 1.17949
480.278, 1.19741
480.278, 1.18668
480.624, 1.20813
481.04, 1.22089
481.663, 1.22563
482.009, 1.21434
483.047, 1.21378
484.086, 1.21716
485.038, 1.21632
485.47, 1.20926
485.817, 1.19684
486.509, 1.19515
486.595, 1.20531
487.201, 1.21886
487.894, 1.23029
488.932, 1.23805
489.971, 1.24087
491.009, 1.24539
492.048, 1.25216
493.086, 1.25442
493.848, 1.24561
494.748, 1.24866
495.509, 1.26035
496.548, 1.26232
497.5, 1.25527
498.625, 1.24934
499.663, 1.25385
500.702, 1.25611
501.74, 1.25216
502.779, 1.24821
503.644, 1.24087
503.817, 1.23071
504.579, 1.22021
505.548, 1.22507
506.586, 1.22902
507.625, 1.23241
508.577, 1.23791
509.702, 1.24369
510.74, 1.2499
511.779, 1.25498
512.904, 1.25738
513.786, 1.2595
514.548, 1.2722
515.24, 1.28321
516.279, 1.28659
516.971, 1.27686
517.663, 1.26246
518.425, 1.25137
519.325, 1.25069
519.74, 1.26627
520.433, 1.28024
521.125, 1.29421
521.817, 1.30734
522.51, 1.31834
523.202, 1.33189
523.894, 1.34713
524.587, 1.35602
525.348, 1.34451
526.248, 1.34789
527.01, 1.35997
527.979, 1.3611
528.671, 1.34756
529.173, 1.3374
529.433, 1.32498
529.952, 1.34417
530.01, 1.33175
530.125, 1.35602
530.471, 1.36675
530.818, 1.37973
531.51, 1.3992
531.51, 1.3882
532.029, 1.40852
532.375, 1.39666
532.548, 1.38763
532.825, 1.37194
533.241, 1.36054
533.673, 1.35264
534.002, 1.37126
534.625, 1.38566
534.972, 1.40005
535.491, 1.40852
535.664, 1.42037
536.356, 1.43222
537.308, 1.43392
537.741, 1.42319
538, 1.4119
538.433, 1.38876
538.502, 1.39971
539.126, 1.39497
539.126, 1.41529
539.645, 1.4263
539.887, 1.43832
540.77, 1.439
541.895, 1.44027
542.414, 1.45085
542.587, 1.46398
542.933, 1.49319
543.003, 1.48032
543.106, 1.49996
543.349, 1.51418
544.318, 1.51915
545.356, 1.51577
546.395, 1.51308
547.087, 1.52663
547.433, 1.54286
547.78, 1.55415
548.126, 1.56897
548.472, 1.57786
548.818, 1.58886
549.857, 1.59592
550.826, 1.60224
551.587, 1.61596
552.28, 1.62584
552.972, 1.63628
553.664, 1.64855
554.357, 1.66507
554.876, 1.67777
555.049, 1.69131
555.741, 1.70486
556.78, 1.71615
557.126, 1.72744
557.645, 1.73619
557.818, 1.74931
558.337, 1.75989
558.511, 1.77344
559.03, 1.7853
559.203, 1.79757
559.895, 1.809
560.588, 1.81959
561.28, 1.83271
561.972, 1.84626
562.665, 1.8598
563.357, 1.8742
563.876, 1.88267
564.049, 1.89452
564.395, 1.90299
564.811, 1.91247
565.693, 1.91315
566.905, 1.91823
567.511, 1.91992
567.857, 1.94363
567.926, 1.93347
568.203, 1.95548
568.722, 1.96733
568.982, 1.9758
569.934, 1.97072
570.972, 1.96508
572.011, 1.96564
572.98, 1.97377
573.742, 1.98808
574.434, 1.99866
575.126, 2.00967
576.078, 2.01814
576.511, 2.03112
577.203, 2.04354
577.896, 2.05426
578.328, 2.04523
578.674, 2.03465
579.28, 2.03338
579.349, 2.04896
579.973, 2.06724
579.973, 2.0537
580.665, 2.07317
581.79, 2.07232
582.673, 2.08215
583.78, 2.08757
584.819, 2.08531
585.857, 2.08248
586.809, 2.08333
587.242, 2.07402
587.588, 2.0616
587.934, 2.052
588.28, 2.03888
588.973, 2.02787
589.665, 2.01517
590.011, 2.00346
590.242, 1.98991
590.271, 1.9758
590.79, 1.96479
591.136, 1.95506
591.742, 1.96959
591.915, 1.94955
592.175, 1.95887
592.434, 1.93685
592.781, 1.92274
592.954, 1.91145
593.127, 1.8996
593.473, 1.88718
593.646, 1.87589
593.733, 1.86234
593.934, 1.85106
594.396, 1.83977
594.425, 1.82424
594.771, 1.8107
595.031, 1.78953
595.031, 1.77937
595.031, 1.79969
595.204, 1.76864
595.377, 1.75735
595.55, 1.74776
595.723, 1.73703
595.723, 1.71671
595.723, 1.72687
595.896, 1.70712
596.069, 1.68708
596.242, 1.64728
596.242, 1.69414
596.415, 1.66253
596.473, 1.67494
596.588, 1.65124
596.761, 1.63882
596.935, 1.62922
597.108, 1.6185
597.108, 1.60834
597.194, 1.59479
597.454, 1.58463
597.627, 1.57447
597.858, 1.55979
597.886, 1.54568
598.233, 1.53044
598.492, 1.51012
598.492, 1.52028
598.579, 1.49827
598.925, 1.48303
599.185, 1.45255
599.185, 1.47287
599.185, 1.46271
599.358, 1.44239
599.704, 1.42714
599.935, 1.41078
600.05, 1.39723
600.396, 1.38594
600.569, 1.37465
600.742, 1.36392
601.088, 1.35264
601.262, 1.34078
601.348, 1.32723
601.608, 1.31707
601.781, 1.30691
601.954, 1.27982
602.012, 1.29224
602.127, 1.27389
602.3, 1.26458
602.473, 1.25555
602.588, 1.22789
602.704, 1.24144
603.165, 1.21589
603.281, 1.19967
603.771, 1.18838
604.204, 1.17765
604.896, 1.16679
605.473, 1.15338
605.589, 1.13983
605.935, 1.12798
606.108, 1.11725
606.281, 1.10597
606.627, 1.09524
606.887, 1.08
607.319, 1.06871
607.579, 1.05291
608.012, 1.04529
608.358, 1.03541
609.396, 1.02638
610.204, 1.01904
610.781, 1.01114
611.127, 1.00098
611.819, 0.990674
612.512, 0.982913
613.55, 0.976139
614.243, 0.967814
614.935, 0.955819
615.195, 0.943683
615.973, 0.937192
616.32, 0.946787
617.358, 0.951303
618.397, 0.951303
619.435, 0.951303
620.474, 0.950174
621.339, 0.942836
621.512, 0.93324
622.204, 0.923362
622.897, 0.913202
623.935, 0.908968
624.974, 0.908404
626.012, 0.903324
627.051, 0.89655
628.089, 0.894857
629.128, 0.892035
630.166, 0.891188
631.205, 0.900502
632.243, 0.909533
633.368, 0.911932
634.32, 0.909533
634.666, 0.898808
635.358, 0.889212
636.397, 0.886954
637.505, 0.886616
638.128, 0.886954
638.474, 0.874536
638.82, 0.862118
639.512, 0.856473
640.551, 0.863247
641.589, 0.873407
642.628, 0.882721
643.32, 0.89147
643.493, 0.900502
643.666, 0.91292
644.013, 0.924209
644.705, 0.930982
645.743, 0.928442
646.436, 0.916589
647.128, 0.903042
647.82, 0.889918
648.859, 0.888648
649.828, 0.886277
650.659, 0.874423
651.282, 0.868327
651.628, 0.879334
651.974, 0.893728
653.013, 0.895421
654.051, 0.895421
655.09, 0.894857
656.042, 0.889495
656.474, 0.88131
656.821, 0.869174
657.513, 0.868327
657.599, 0.878064
658.205, 0.878487
658.551, 0.889212
658.897, 0.902195
659.417, 0.910662
659.676, 0.919975
660.022, 0.930982
660.628, 0.914049
660.974, 0.898244
660.974, 0.887378
662.013, 0.893728
663.051, 0.899373
664.09, 0.894857
665.128, 0.892599
666.167, 0.887519
667.205, 0.887519
668.244, 0.889918
669.005, 0.897115
669.975, 0.895421
671.013, 0.888083
671.982, 0.891019
672.813, 0.905243
673.696, 0.907275
674.475, 0.902759
675.444, 0.903888
676.206, 0.893728
676.967, 0.878487
677.244, 0.89147
677.59, 0.880181
678.006, 0.90084
678.802, 0.898808
678.802, 0.890341