File: ingan/robins_1999/in36/raman/curve_total_fit.dat
609.729,0.0383713
609.829,0.0384955
609.929,0.038621
610.029,0.0387479
610.129,0.038876
610.229,0.0390056
610.329,0.0391364
610.429,0.0392687
610.529,0.0394023
610.629,0.0395374
610.729,0.0396738
610.829,0.0398117
610.929,0.039951
611.029,0.0400917
611.129,0.0402339
611.229,0.0403775
611.329,0.0405226
611.429,0.0406692
611.529,0.0408173
611.629,0.040967
611.729,0.0411181
611.829,0.0412708
611.929,0.041425
612.029,0.0415808
612.129,0.0417382
612.229,0.0418971
612.329,0.0420577
612.429,0.0422198
612.529,0.0423836
612.629,0.042549
612.729,0.0427161
612.829,0.0428848
612.929,0.0430552
613.029,0.0432273
613.129,0.0434011
613.229,0.0435766
613.329,0.0437538
613.429,0.0439328
613.529,0.0441135
613.629,0.044296
613.729,0.0444802
613.829,0.0446663
613.929,0.0448541
614.029,0.0450438
614.129,0.0452353
614.229,0.0454286
614.329,0.0456238
614.429,0.0458209
614.529,0.0460198
614.629,0.0462207
614.729,0.0464234
614.829,0.0466281
614.929,0.0468347
615.029,0.0470433
615.129,0.0472538
615.229,0.0474664
615.329,0.0476809
615.429,0.0478974
615.529,0.0481159
615.629,0.0483365
615.729,0.0485591
615.829,0.0487838
615.929,0.0490105
616.029,0.0492393
616.129,0.0494703
616.229,0.0497034
616.329,0.0499385
616.429,0.0501759
616.529,0.0504154
616.629,0.0506571
616.729,0.0509009
616.829,0.051147
616.929,0.0513953
617.029,0.0516458
617.129,0.0518985
617.229,0.0521536
617.329,0.0524109
617.429,0.0526704
617.529,0.0529323
617.629,0.0531965
617.729,0.0534631
617.829,0.053732
617.929,0.0540032
618.029,0.0542768
618.129,0.0545528
618.229,0.0548312
618.329,0.0551121
618.429,0.0553953
618.529,0.055681
618.629,0.0559692
618.729,0.0562599
618.829,0.056553
618.929,0.0568487
619.029,0.0571468
619.129,0.0574475
619.229,0.0577508
619.329,0.0580566
619.429,0.058365
619.529,0.058676
619.629,0.0589896
619.729,0.0593058
619.829,0.0596247
619.929,0.0599462
620.029,0.0602704
620.129,0.0605972
620.229,0.0609268
620.329,0.061259
620.429,0.061594
620.529,0.0619318
620.629,0.0622722
620.729,0.0626155
620.829,0.0629615
620.929,0.0633104
621.029,0.063662
621.129,0.0640165
621.229,0.0643738
621.329,0.0647339
621.429,0.065097
621.529,0.0654629
621.629,0.0658317
621.729,0.0662034
621.829,0.066578
621.929,0.0669556
622.029,0.0673362
622.129,0.0677197
622.229,0.0681062
622.329,0.0684957
622.429,0.0688882
622.529,0.0692837
622.629,0.0696822
622.729,0.0700839
622.829,0.0704885
622.929,0.0708963
623.029,0.0713072
623.129,0.0717211
623.229,0.0721382
623.329,0.0725584
623.429,0.0729818
623.529,0.0734083
623.629,0.073838
623.729,0.0742709
623.829,0.074707
623.929,0.0751463
624.029,0.0755888
624.129,0.0760346
624.229,0.0764836
624.329,0.0769359
624.429,0.0773915
624.529,0.0778504
624.629,0.0783126
624.729,0.0787781
624.829,0.0792469
624.929,0.0797191
625.029,0.0801946
625.129,0.0806735
625.229,0.0811558
625.329,0.0816414
625.429,0.0821305
625.529,0.082623
625.629,0.0831189
625.729,0.0836183
625.829,0.0841211
625.929,0.0846274
626.029,0.0851371
626.129,0.0856504
626.229,0.0861671
626.329,0.0866874
626.429,0.0872112
626.529,0.0877385
626.629,0.0882693
626.729,0.0888037
626.829,0.0893417
626.929,0.0898833
627.029,0.0904284
627.129,0.0909771
627.229,0.0915295
627.329,0.0920854
627.429,0.092645
627.529,0.0932082
627.629,0.0937751
627.729,0.0943456
627.829,0.0949198
627.929,0.0954977
628.029,0.0960792
628.129,0.0966644
628.229,0.0972534
628.329,0.097846
628.429,0.0984424
628.529,0.0990425
628.629,0.0996464
628.729,0.100254
628.829,0.100865
628.929,0.10148
629.029,0.102099
629.129,0.102722
629.229,0.103348
629.329,0.103979
629.429,0.104613
629.529,0.10525
629.629,0.105892
629.729,0.106537
629.829,0.107187
629.929,0.10784
630.029,0.108497
630.129,0.109158
630.229,0.109822
630.329,0.110491
630.429,0.111163
630.529,0.111839
630.629,0.11252
630.729,0.113204
630.829,0.113891
630.929,0.114583
631.029,0.115279
631.129,0.115978
631.229,0.116682
631.329,0.117389
631.429,0.1181
631.529,0.118815
631.629,0.119535
631.729,0.120258
631.829,0.120984
631.929,0.121715
632.029,0.12245
632.129,0.123189
632.229,0.123931
632.329,0.124678
632.429,0.125428
632.529,0.126183
632.629,0.126941
632.729,0.127703
632.829,0.128469
632.929,0.12924
633.029,0.130014
633.129,0.130792
633.229,0.131573
633.329,0.132359
633.429,0.133149
633.529,0.133943
633.629,0.134741
633.729,0.135542
633.829,0.136348
633.929,0.137157
634.029,0.13797
634.129,0.138788
634.229,0.139609
634.329,0.140434
634.429,0.141263
634.529,0.142096
634.629,0.142933
634.729,0.143774
634.829,0.144618
634.929,0.145467
635.029,0.146319
635.129,0.147176
635.229,0.148036
635.329,0.1489
635.429,0.149768
635.529,0.15064
635.629,0.151515
635.729,0.152395
635.829,0.153278
635.929,0.154166
636.029,0.155057
636.129,0.155951
636.229,0.15685
636.329,0.157753
636.429,0.158659
636.529,0.159569
636.629,0.160483
636.729,0.1614
636.829,0.162322
636.929,0.163247
637.029,0.164176
637.129,0.165108
637.229,0.166045
637.329,0.166985
637.429,0.167929
637.529,0.168876
637.629,0.169827
637.729,0.170782
637.829,0.17174
637.929,0.172702
638.029,0.173668
638.129,0.174637
638.229,0.17561
638.329,0.176587
638.429,0.177567
638.529,0.17855
638.629,0.179538
638.729,0.180528
638.829,0.181523
638.929,0.18252
639.029,0.183521
639.129,0.184526
639.229,0.185534
639.329,0.186546
639.429,0.187561
639.529,0.188579
639.629,0.189601
639.729,0.190626
639.829,0.191655
639.929,0.192687
640.029,0.193722
640.129,0.19476
640.229,0.195802
640.329,0.196847
640.429,0.197895
640.529,0.198947
640.629,0.200001
640.729,0.201059
640.829,0.20212
640.929,0.203184
641.029,0.204251
641.129,0.205322
641.229,0.206395
641.329,0.207472
641.429,0.208551
641.529,0.209633
641.629,0.210719
641.729,0.211807
641.829,0.212899
641.929,0.213993
642.029,0.21509
642.129,0.21619
642.229,0.217293
642.329,0.218399
642.429,0.219507
642.529,0.220619
642.629,0.221733
642.729,0.222849
642.829,0.223969
642.929,0.225091
643.029,0.226216
643.129,0.227343
643.229,0.228473
643.329,0.229605
643.429,0.23074
643.529,0.231878
643.629,0.233018
643.729,0.23416
643.829,0.235305
643.929,0.236453
644.029,0.237602
644.129,0.238754
644.229,0.239908
644.329,0.241065
644.429,0.242224
644.529,0.243385
644.629,0.244548
644.729,0.245714
644.829,0.246881
644.929,0.248051
645.029,0.249222
645.129,0.250396
645.229,0.251572
645.329,0.25275
645.429,0.253929
645.529,0.255111
645.629,0.256294
645.729,0.25748
645.829,0.258667
645.929,0.259856
646.029,0.261047
646.129,0.262239
646.229,0.263433
646.329,0.264629
646.429,0.265827
646.529,0.267026
646.629,0.268226
646.729,0.269429
646.829,0.270632
646.929,0.271837
647.029,0.273044
647.129,0.274252
647.229,0.275461
647.329,0.276672
647.429,0.277884
647.529,0.279098
647.629,0.280312
647.729,0.281528
647.829,0.282745
647.929,0.283963
648.029,0.285182
648.129,0.286403
648.229,0.287624
648.329,0.288846
648.429,0.29007
648.529,0.291294
648.629,0.292519
648.729,0.293746
648.829,0.294973
648.929,0.296201
649.029,0.297429
649.129,0.298659
649.229,0.299889
649.329,0.30112
649.429,0.302351
649.529,0.303583
649.629,0.304816
649.729,0.306049
649.829,0.307283
649.929,0.308518
650.029,0.309752
650.129,0.310988
650.229,0.312224
650.329,0.31346
650.429,0.314696
650.529,0.315933
650.629,0.31717
650.729,0.318408
650.829,0.319645
650.929,0.320883
651.029,0.322121
651.129,0.32336
651.229,0.324598
651.329,0.325837
651.429,0.327075
651.529,0.328314
651.629,0.329553
651.729,0.330792
651.829,0.33203
651.929,0.333269
652.029,0.334508
652.129,0.335746
652.229,0.336985
652.329,0.338223
652.429,0.339462
652.529,0.3407
652.629,0.341938
652.729,0.343175
652.829,0.344413
652.929,0.34565
653.029,0.346887
653.129,0.348123
653.229,0.34936
653.329,0.350596
653.429,0.351832
653.529,0.353067
653.629,0.354302
653.729,0.355537
653.829,0.356771
653.929,0.358005
654.029,0.359238
654.129,0.360471
654.229,0.361704
654.329,0.362936
654.429,0.364168
654.529,0.365399
654.629,0.36663
654.729,0.36786
654.829,0.36909
654.929,0.37032
655.029,0.371549
655.129,0.372777
655.229,0.374005
655.329,0.375233
655.429,0.37646
655.529,0.377686
655.629,0.378912
655.729,0.380138
655.829,0.381363
655.929,0.382588
656.029,0.383812
656.129,0.385036
656.229,0.38626
656.329,0.387482
656.429,0.388705
656.529,0.389927
656.629,0.391149
656.729,0.39237
656.829,0.393592
656.929,0.394812
657.029,0.396033
657.129,0.397253
657.229,0.398473
657.329,0.399692
657.429,0.400912
657.529,0.402131
657.629,0.40335
657.729,0.404569
657.829,0.405788
657.929,0.407006
658.029,0.408225
658.129,0.409444
658.229,0.410662
658.329,0.411881
658.429,0.4131
658.529,0.414319
658.629,0.415538
658.729,0.416757
658.829,0.417977
658.929,0.419197
659.029,0.420417
659.129,0.421637
659.229,0.422859
659.329,0.42408
659.429,0.425302
659.529,0.426525
659.629,0.427749
659.729,0.428973
659.829,0.430198
659.929,0.431424
660.029,0.43265
660.129,0.433878
660.229,0.435107
660.329,0.436337
660.429,0.437568
660.529,0.4388
660.629,0.440034
660.729,0.441269
660.829,0.442506
660.929,0.443744
661.029,0.444984
661.129,0.446225
661.229,0.447469
661.329,0.448714
661.429,0.449961
661.529,0.451211
661.629,0.452462
661.729,0.453716
661.829,0.454972
661.929,0.456231
662.029,0.457492
662.129,0.458756
662.229,0.460022
662.329,0.461292
662.429,0.462564
662.529,0.46384
662.629,0.465118
662.729,0.4664
662.829,0.467686
662.929,0.468974
663.029,0.470267
663.129,0.471563
663.229,0.472864
663.329,0.474168
663.429,0.475476
663.529,0.476789
663.629,0.478106
663.729,0.479427
663.829,0.480753
663.929,0.482084
664.029,0.48342
664.129,0.484761
664.229,0.486107
664.329,0.487458
664.429,0.488815
664.529,0.490177
664.629,0.491545
664.729,0.492919
664.829,0.494299
664.929,0.495686
665.029,0.497078
665.129,0.498477
665.229,0.499883
665.329,0.501295
665.429,0.502715
665.529,0.504141
665.629,0.505575
665.729,0.507016
665.829,0.508465
665.929,0.509922
666.029,0.511386
666.129,0.512859
666.229,0.514339
666.329,0.515829
666.429,0.517326
666.529,0.518833
666.629,0.520348
666.729,0.521873
666.829,0.523406
666.929,0.52495
667.029,0.526502
667.129,0.528065
667.229,0.529637
667.329,0.53122
667.429,0.532813
667.529,0.534416
667.629,0.536031
667.729,0.537655
667.829,0.539291
667.929,0.540938
668.029,0.542597
668.129,0.544267
668.229,0.545949
668.329,0.547643
668.429,0.549348
668.529,0.551066
668.629,0.552797
668.729,0.55454
668.829,0.556296
668.929,0.558065
669.029,0.559847
669.129,0.561643
669.229,0.563452
669.329,0.565274
669.429,0.567111
669.529,0.568962
669.629,0.570827
669.729,0.572706
669.829,0.5746
669.929,0.576509
670.029,0.578433
670.129,0.580371
670.229,0.582326
670.329,0.584295
670.429,0.58628
670.529,0.588281
670.629,0.590298
670.729,0.592331
670.829,0.594381
670.929,0.596447
671.029,0.598529
671.129,0.600628
671.229,0.602745
671.329,0.604878
671.429,0.607028
671.529,0.609196
671.629,0.611382
671.729,0.613585
671.829,0.615806
671.929,0.618045
672.029,0.620302
672.129,0.622577
672.229,0.624871
672.329,0.627183
672.429,0.629514
672.529,0.631864
672.629,0.634232
672.729,0.63662
672.829,0.639026
672.929,0.641452
673.029,0.643897
673.129,0.646362
673.229,0.648846
673.329,0.65135
673.429,0.653874
673.529,0.656417
673.629,0.65898
673.729,0.661564
673.829,0.664167
673.929,0.666791
674.029,0.669434
674.129,0.672098
674.229,0.674783
674.329,0.677488
674.429,0.680213
674.529,0.682958
674.629,0.685725
674.729,0.688512
674.829,0.691319
674.929,0.694147
675.029,0.696996
675.129,0.699865
675.229,0.702755
675.329,0.705666
675.429,0.708597
675.529,0.711549
675.629,0.714522
675.729,0.717515
675.829,0.720529
675.929,0.723564
676.029,0.726619
676.129,0.729694
676.229,0.73279
676.329,0.735907
676.429,0.739044
676.529,0.742201
676.629,0.745378
676.729,0.748575
676.829,0.751793
676.929,0.75503
677.029,0.758287
677.129,0.761564
677.229,0.764861
677.329,0.768177
677.429,0.771512
677.529,0.774866
677.629,0.77824
677.729,0.781633
677.829,0.785044
677.929,0.788474
678.029,0.791923
678.129,0.795389
678.229,0.798874
678.329,0.802377
678.429,0.805897
678.529,0.809435
678.629,0.81299
678.729,0.816562
678.829,0.820151
678.929,0.823757
679.029,0.827378
679.129,0.831016
679.229,0.83467
679.329,0.838339
679.429,0.842024
679.529,0.845723
679.629,0.849437
679.729,0.853165
679.829,0.856908
679.929,0.860664
680.029,0.864434
680.129,0.868217
680.229,0.872012
680.329,0.87582
680.429,0.87964
680.529,0.883472
680.629,0.887315
680.729,0.891169
680.829,0.895034
680.929,0.898908
681.029,0.902793
681.129,0.906687
681.229,0.910589
681.329,0.914501
681.429,0.91842
681.529,0.922347
681.629,0.926281
681.729,0.930222
681.829,0.934169
681.929,0.938122
682.029,0.942081
682.129,0.946044
682.229,0.950012
682.329,0.953983
682.429,0.957958
682.529,0.961936
682.629,0.965916
682.729,0.969898
682.829,0.973881
682.929,0.977865
683.029,0.98185
683.129,0.985833
683.229,0.989817
683.329,0.993798
683.429,0.997778
683.529,1.00175
683.629,1.00573
683.729,1.0097
683.829,1.01367
683.929,1.01763
684.029,1.02158
684.129,1.02553
684.229,1.02947
684.329,1.03341
684.429,1.03734
684.529,1.04125
684.629,1.04516
684.729,1.04906
684.829,1.05295
684.929,1.05683
685.029,1.0607
685.129,1.06455
685.229,1.06839
685.329,1.07222
685.429,1.07603
685.529,1.07983
685.629,1.08361
685.729,1.08738
685.829,1.09113
685.929,1.09486
686.029,1.09857
686.129,1.10226
686.229,1.10594
686.329,1.10959
686.429,1.11322
686.529,1.11683
686.629,1.12042
686.729,1.12399
686.829,1.12753
686.929,1.13105
687.029,1.13454
687.129,1.138
687.229,1.14144
687.329,1.14485
687.429,1.14824
687.529,1.15159
687.629,1.15492
687.729,1.15821
687.829,1.16148
687.929,1.16471
688.029,1.16791
688.129,1.17108
688.229,1.17422
688.329,1.17732
688.429,1.18038
688.529,1.18342
688.629,1.18641
688.729,1.18937
688.829,1.19229
688.929,1.19517
689.029,1.19802
689.129,1.20082
689.229,1.20359
689.329,1.20631
689.429,1.20899
689.529,1.21163
689.629,1.21423
689.729,1.21679
689.829,1.2193
689.929,1.22176
690.029,1.22418
690.129,1.22656
690.229,1.22889
690.329,1.23117
690.429,1.23341
690.529,1.2356
690.629,1.23773
690.729,1.23982
690.829,1.24186
690.929,1.24385
691.029,1.24579
691.129,1.24768
691.229,1.24952
691.329,1.2513
691.429,1.25303
691.529,1.25471
691.629,1.25633
691.729,1.2579
691.829,1.25941
691.929,1.26087
692.029,1.26228
692.129,1.26362
692.229,1.26491
692.329,1.26615
692.429,1.26732
692.529,1.26844
692.629,1.2695
692.729,1.2705
692.829,1.27144
692.929,1.27232
693.029,1.27315
693.129,1.27391
693.229,1.27461
693.329,1.27525
693.429,1.27583
693.529,1.27635
693.629,1.27681
693.729,1.2772
693.829,1.27754
693.929,1.27781
694.029,1.27801
694.129,1.27816
694.229,1.27824
694.329,1.27826
694.429,1.27821
694.529,1.2781
694.629,1.27793
694.729,1.27769
694.829,1.27739
694.929,1.27702
695.029,1.27659
695.129,1.2761
695.229,1.27554
695.329,1.27491
695.429,1.27422
695.529,1.27347
695.629,1.27265
695.729,1.27176
695.829,1.27081
695.929,1.2698
696.029,1.26872
696.129,1.26757
696.229,1.26636
696.329,1.26509
696.429,1.26375
696.529,1.26234
696.629,1.26087
696.729,1.25934
696.829,1.25774
696.929,1.25608
697.029,1.25435
697.129,1.25256
697.229,1.25071
697.329,1.24879
697.429,1.2468
697.529,1.24476
697.629,1.24265
697.729,1.24048
697.829,1.23824
697.929,1.23594
698.029,1.23358
698.129,1.23116
698.229,1.22868
698.329,1.22613
698.429,1.22353
698.529,1.22086
698.629,1.21814
698.729,1.21535
698.829,1.2125
698.929,1.2096
699.029,1.20663
699.129,1.20361
699.229,1.20053
699.329,1.19739
699.429,1.19419
699.529,1.19093
699.629,1.18762
699.729,1.18426
699.829,1.18084
699.929,1.17736
700.029,1.17383
700.129,1.17024
700.229,1.1666
700.329,1.16291
700.429,1.15917
700.529,1.15537
700.629,1.15152
700.729,1.14762
700.829,1.14367
700.929,1.13967
701.029,1.13562
701.129,1.13153
701.229,1.12738
701.329,1.12319
701.429,1.11895
701.529,1.11466
701.629,1.11033
701.729,1.10596
701.829,1.10154
701.929,1.09707
702.029,1.09257
702.129,1.08802
702.229,1.08342
702.329,1.07879
702.429,1.07412
702.529,1.06941
702.629,1.06466
702.729,1.05987
702.829,1.05504
702.929,1.05018
703.029,1.04528
703.129,1.04034
703.229,1.03537
703.329,1.03037
703.429,1.02533
703.529,1.02026
703.629,1.01516
703.729,1.01002
703.829,1.00486
703.929,0.999666
704.029,0.994444
704.129,0.989194
704.229,0.983917
704.329,0.978613
704.429,0.973282
704.529,0.967927
704.629,0.962548
704.729,0.957144
704.829,0.951718
704.929,0.94627
705.029,0.940801
705.129,0.93531
705.229,0.9298
705.329,0.924271
705.429,0.918724
705.529,0.913159
705.629,0.907577
705.729,0.901979
705.829,0.896366
705.929,0.890738
706.029,0.885097
706.129,0.879442
706.229,0.873775
706.329,0.868097
706.429,0.862407
706.529,0.856708
706.629,0.850999
706.729,0.845282
706.829,0.839557
706.929,0.833824
707.029,0.828086
707.129,0.822341
707.229,0.816592
707.329,0.810838
707.429,0.805081
707.529,0.799321
707.629,0.793559
707.729,0.787796
707.829,0.782031
707.929,0.776267
708.029,0.770503
708.129,0.764741
708.229,0.758981
708.329,0.753223
708.429,0.747469
708.529,0.741718
708.629,0.735973
708.729,0.730232
708.829,0.724498
708.929,0.71877
709.029,0.71305
709.129,0.707337
709.229,0.701632
709.329,0.695937
709.429,0.690252
709.529,0.684576
709.629,0.678912
709.729,0.673259
709.829,0.667618
709.929,0.661989
710.029,0.656374
710.129,0.650772
710.229,0.645185
710.329,0.639613
710.429,0.634055
710.529,0.628514
710.629,0.622989
710.729,0.617481
710.829,0.61199
710.929,0.606518
711.029,0.601063
711.129,0.595628
711.229,0.590211
711.329,0.584815
711.429,0.579439
711.529,0.574083
711.629,0.568749
711.729,0.563436
711.829,0.558145
711.929,0.552877
712.029,0.547631
712.129,0.542409
712.229,0.53721
712.329,0.532035
712.429,0.526884
712.529,0.521759
712.629,0.516658
712.729,0.511583
712.829,0.506533
712.929,0.50151
713.029,0.496513
713.129,0.491542
713.229,0.486599
713.329,0.481683
713.429,0.476795
713.529,0.471935
713.629,0.467103
713.729,0.462299
713.829,0.457524
713.929,0.452778
714.029,0.448061
714.129,0.443374
714.229,0.438716
714.329,0.434088
714.429,0.42949
714.529,0.424923
714.629,0.420385
714.729,0.415879
714.829,0.411403
714.929,0.406959
715.029,0.402545
715.129,0.398163
715.229,0.393813
715.329,0.389494
715.429,0.385206
715.529,0.380951
715.629,0.376728
715.729,0.372536
715.829,0.368377
715.929,0.36425
716.029,0.360155
716.129,0.356093
716.229,0.352064
716.329,0.348067
716.429,0.344102
716.529,0.340171
716.629,0.336272
716.729,0.332405
716.829,0.328572
716.929,0.324772
717.029,0.321004
717.129,0.317269
717.229,0.313567
717.329,0.309898
717.429,0.306262
717.529,0.302658
717.629,0.299088
717.729,0.29555
717.829,0.292045
717.929,0.288573
718.029,0.285133
718.129,0.281726
718.229,0.278352
718.329,0.27501
718.429,0.271701
718.529,0.268424
718.629,0.26518
718.729,0.261968
718.829,0.258788
718.929,0.25564
719.029,0.252524
719.129,0.24944
719.229,0.246388
719.329,0.243367
719.429,0.240379
719.529,0.237421
719.629,0.234495
719.729,0.2316
719.829,0.228737
719.929,0.225904
720.029,0.223102
720.129,0.220331
720.229,0.217591
720.329,0.214881
720.429,0.212201
720.529,0.209551
720.629,0.206932
720.729,0.204342
720.829,0.201782
720.929,0.199251
721.029,0.19675
721.129,0.194278
721.229,0.191835
721.329,0.18942
721.429,0.187035
721.529,0.184678
721.629,0.182349
721.729,0.180048
721.829,0.177775
721.929,0.17553
722.029,0.173312
722.129,0.171122
722.229,0.168959
722.329,0.166823
722.429,0.164714
722.529,0.162631
722.629,0.160574
722.729,0.158544
722.829,0.15654
722.929,0.154561
723.029,0.152608
723.129,0.150681
723.229,0.148778
723.329,0.146901
723.429,0.145048
723.529,0.14322
723.629,0.141416
723.729,0.139636
723.829,0.13788
723.929,0.136147
724.029,0.134438
724.129,0.132753
724.229,0.13109
724.329,0.12945
724.429,0.127833
724.529,0.126238
724.629,0.124665
724.729,0.123115
724.829,0.121586
724.929,0.120078
725.029,0.118592
725.129,0.117127
725.229,0.115683
725.329,0.114259
725.429,0.112856
725.529,0.111473
725.629,0.11011
725.729,0.108767
725.829,0.107443
725.929,0.106139
726.029,0.104854
726.129,0.103588
726.229,0.10234
726.329,0.101112
726.429,0.0999012
726.529,0.0987087
726.629,0.0975342
726.729,0.0963774
726.829,0.0952381
726.929,0.0941161
727.029,0.0930111
727.129,0.091923
727.229,0.0908515
727.329,0.0897966
727.429,0.0887579
727.529,0.0877352
727.629,0.0867284
727.729,0.0857373
727.829,0.0847617
727.929,0.0838014
728.029,0.0828561
728.129,0.0819257
728.229,0.0810101
728.329,0.0801089
728.429,0.0792221
728.529,0.0783494
728.629,0.0774906
728.729,0.0766456
728.829,0.0758142
728.929,0.0749962
729.029,0.0741914
729.129,0.0733997
729.229,0.0726208
729.329,0.0718546
729.429,0.0711009
729.529,0.0703596
729.629,0.0696304
729.729,0.0689132
729.829,0.0682079
729.929,0.0675142
730.029,0.066832
730.129,0.0661611
730.229,0.0655014
730.329,0.0648527
730.429,0.0642149
730.529,0.0635877
730.629,0.0629711
730.729,0.0623648
730.829,0.0617688
730.929,0.0611829
731.029,0.0606068
731.129,0.0600406
731.229,0.059484
731.329,0.0589368
731.429,0.058399
731.529,0.0578704
731.629,0.0573509
731.729,0.0568402
731.829,0.0563384
731.929,0.0558452
732.029,0.0553604
732.129,0.0548841
732.229,0.054416
732.329,0.0539561
732.429,0.0535041
732.529,0.05306
732.629,0.0526236
732.729,0.0521948
732.829,0.0517735
732.929,0.0513596
733.029,0.0509529
733.129,0.0505534
733.229,0.0501609
733.329,0.0497752
733.429,0.0493964
733.529,0.0490243
733.629,0.0486587
733.729,0.0482996
733.829,0.0479468
733.929,0.0476003
734.029,0.0472599
734.129,0.0469255
734.229,0.0465971
734.329,0.0462746
734.429,0.0459577
734.529,0.0456466
734.629,0.0453409
734.729,0.0450407
734.829,0.0447459
734.929,0.0444563
735.029,0.044172
735.129,0.0438927
735.229,0.0436184
735.329,0.043349
735.429,0.0430844
735.529,0.0428246
735.629,0.0425695
735.729,0.0423189
735.829,0.0420729
735.929,0.0418312
736.029,0.0415939
736.129,0.0413609
736.229,0.0411321
736.329,0.0409073
736.429,0.0406867
736.529,0.04047
736.629,0.0402571
736.729,0.0400482
736.829,0.039843
736.929,0.0396415
737.029,0.0394436
737.129,0.0392493
737.229,0.0390585
737.329,0.0388711
737.429,0.0386871
737.529,0.0385064
737.629,0.038329
737.729,0.0381547
737.829,0.0379836
737.929,0.0378156
738.029,0.0376506
738.129,0.0374886
738.229,0.0373295
738.329,0.0371732
738.429,0.0370198
738.529,0.0368691
738.629,0.0367211
738.729,0.0365758
738.829,0.0364331
738.929,0.0362929
739.029,0.0361553
739.129,0.0360201
739.229,0.0358874
739.329,0.035757
739.429,0.035629
739.529,0.0355032
739.629,0.0353797
739.729,0.0352584
739.829,0.0351393
739.929,0.0350222
740.029,0.0349073
740.129,0.0347944
740.229,0.0346835
740.329,0.0345746
740.429,0.0344677
740.529,0.0343626
740.629,0.0342594
740.729,0.034158
740.829,0.0340584
740.929,0.0339606
741.029,0.0338645
741.129,0.0337701
741.229,0.0336773
741.329,0.0335862
741.429,0.0334967
741.529,0.0334088
741.629,0.0333224
741.729,0.0332375
741.829,0.0331541
741.929,0.0330721
742.029,0.0329916
742.129,0.0329125
742.229,0.0328348
742.329,0.0327585
742.429,0.0326834
742.529,0.0326097
742.629,0.0325372
742.729,0.032466
742.829,0.032396
742.929,0.0323273
743.029,0.0322597
743.129,0.0321933
743.229,0.032128
743.329,0.0320638
743.429,0.0320008
743.529,0.0319388
743.629,0.0318779
743.729,0.0318181
743.829,0.0317592
743.929,0.0317014
744.029,0.0316445
744.129,0.0315886
744.229,0.0315337
744.329,0.0314797
744.429,0.0314266
744.529,0.0313744
744.629,0.0313231
744.729,0.0312726
744.829,0.031223
744.929,0.0311742
745.029,0.0311263
745.129,0.0310791
745.229,0.0310328
745.329,0.0309872
745.429,0.0309424
745.529,0.0308983
745.629,0.030855
745.729,0.0308124
745.829,0.0307705
745.929,0.0307293
746.029,0.0306887
746.129,0.0306489
746.229,0.0306097
746.329,0.0305711
746.429,0.0305332
746.529,0.0304959
746.629,0.0304592
746.729,0.0304231
746.829,0.0303876
746.929,0.0303527
747.029,0.0303184
747.129,0.0302846
747.229,0.0302514
747.329,0.0302187
747.429,0.0301866
747.529,0.0301549
747.629,0.0301238
747.729,0.0300932
747.829,0.0300631
747.929,0.0300335
748.029,0.0300043
748.129,0.0299756
748.229,0.0299474
748.329,0.0299196
748.429,0.0298923
748.529,0.0298655
748.629,0.029839
748.729,0.029813
748.829,0.0297874
748.929,0.0297622
749.029,0.0297374
749.129,0.029713
749.229,0.029689
749.329,0.0296654
749.429,0.0296421
749.529,0.0296193
749.629,0.0295967
749.729,0.0295746
749.829,0.0295528
749.929,0.0295313
750.029,0.0295102
750.129,0.0294894
750.229,0.029469
750.329,0.0294488
750.429,0.029429
750.529,0.0294095
750.629,0.0293903
750.729,0.0293715
750.829,0.0293529
750.929,0.0293346
751.029,0.0293166
751.129,0.0292988
751.229,0.0292814
751.329,0.0292642
751.429,0.0292473
751.529,0.0292307
751.629,0.0292143
751.729,0.0291982
751.829,0.0291823
751.929,0.0291667
752.029,0.0291513
752.129,0.0291362
752.229,0.0291213
752.329,0.0291066
752.429,0.0290922
752.529,0.029078
752.629,0.029064
752.729,0.0290503
752.829,0.0290367
752.929,0.0290234
753.029,0.0290102
753.129,0.0289973
753.229,0.0289846
753.329,0.0289721
753.429,0.0289598
753.529,0.0289476
753.629,0.0289357
753.729,0.0289239
753.829,0.0289124
753.929,0.028901
754.029,0.0288897
754.129,0.0288787
754.229,0.0288678
754.329,0.0288571
754.429,0.0288466
754.529,0.0288363
754.629,0.0288261
754.729,0.028816
754.829,0.0288061
754.929,0.0287964
755.029,0.0287868
755.129,0.0287774
755.229,0.0287681
755.329,0.028759
755.429,0.02875
755.529,0.0287411
755.629,0.0287324