File: ingan/robins_1999/in36/raman/curve_1_fit.dat
609.729,0.0101604
609.829,0.0102846
609.929,0.0104101
610.029,0.010537
610.129,0.0106651
610.229,0.0107947
610.329,0.0109255
610.429,0.0110578
610.529,0.0111914
610.629,0.0113265
610.729,0.0114629
610.829,0.0116008
610.929,0.0117401
611.029,0.0118808
611.129,0.012023
611.229,0.0121666
611.329,0.0123117
611.429,0.0124583
611.529,0.0126064
611.629,0.0127561
611.729,0.0129072
611.829,0.0130599
611.929,0.0132141
612.029,0.0133699
612.129,0.0135273
612.229,0.0136862
612.329,0.0138468
612.429,0.0140089
612.529,0.0141727
612.629,0.0143381
612.729,0.0145052
612.829,0.0146739
612.929,0.0148443
613.029,0.0150164
613.129,0.0151902
613.229,0.0153657
613.329,0.0155429
613.429,0.0157219
613.529,0.0159026
613.629,0.0160851
613.729,0.0162693
613.829,0.0164554
613.929,0.0166432
614.029,0.0168329
614.129,0.0170244
614.229,0.0172177
614.329,0.0174129
614.429,0.01761
614.529,0.0178089
614.629,0.0180098
614.729,0.0182125
614.829,0.0184172
614.929,0.0186238
615.029,0.0188324
615.129,0.0190429
615.229,0.0192555
615.329,0.01947
615.429,0.0196865
615.529,0.019905
615.629,0.0201256
615.729,0.0203482
615.829,0.0205729
615.929,0.0207996
616.029,0.0210284
616.129,0.0212594
616.229,0.0214925
616.329,0.0217276
616.429,0.021965
616.529,0.0222045
616.629,0.0224462
616.729,0.02269
616.829,0.0229361
616.929,0.0231844
617.029,0.0234349
617.129,0.0236876
617.229,0.0239427
617.329,0.0242
617.429,0.0244595
617.529,0.0247214
617.629,0.0249856
617.729,0.0252522
617.829,0.0255211
617.929,0.0257923
618.029,0.0260659
618.129,0.0263419
618.229,0.0266203
618.329,0.0269012
618.429,0.0271844
618.529,0.0274701
618.629,0.0277583
618.729,0.028049
618.829,0.0283421
618.929,0.0286378
619.029,0.0289359
619.129,0.0292366
619.229,0.0295399
619.329,0.0298457
619.429,0.0301541
619.529,0.0304651
619.629,0.0307787
619.729,0.0310949
619.829,0.0314138
619.929,0.0317353
620.029,0.0320595
620.129,0.0323863
620.229,0.0327159
620.329,0.0330481
620.429,0.0333831
620.529,0.0337209
620.629,0.0340613
620.729,0.0344046
620.829,0.0347506
620.929,0.0350994
621.029,0.0354511
621.129,0.0358056
621.229,0.0361629
621.329,0.036523
621.429,0.036886
621.529,0.037252
621.629,0.0376208
621.729,0.0379925
621.829,0.0383671
621.929,0.0387447
622.029,0.0391253
622.129,0.0395088
622.229,0.0398953
622.329,0.0402847
622.429,0.0406772
622.529,0.0410728
622.629,0.0414713
622.729,0.0418729
622.829,0.0422776
622.929,0.0426854
623.029,0.0430962
623.129,0.0435102
623.229,0.0439273
623.329,0.0443475
623.429,0.0447709
623.529,0.0451974
623.629,0.0456271
623.729,0.04606
623.829,0.0464961
623.929,0.0469354
624.029,0.0473779
624.129,0.0478237
624.229,0.0482727
624.329,0.048725
624.429,0.0491806
624.529,0.0496395
624.629,0.0501016
624.729,0.0505671
624.829,0.0510359
624.929,0.0515081
625.029,0.0519836
625.129,0.0524625
625.229,0.0529448
625.329,0.0534305
625.429,0.0539196
625.529,0.054412
625.629,0.054908
625.729,0.0554073
625.829,0.0559101
625.929,0.0564164
626.029,0.0569262
626.129,0.0574394
626.229,0.0579562
626.329,0.0584764
626.429,0.0590002
626.529,0.0595275
626.629,0.0600583
626.729,0.0605927
626.829,0.0611307
626.929,0.0616723
627.029,0.0622174
627.129,0.0627661
627.229,0.0633184
627.329,0.0638744
627.429,0.064434
627.529,0.0649972
627.629,0.065564
627.729,0.0661345
627.829,0.0667087
627.929,0.0672866
628.029,0.0678681
628.129,0.0684534
628.229,0.0690423
628.329,0.0696349
628.429,0.0702313
628.529,0.0708314
628.629,0.0714352
628.729,0.0720428
628.829,0.0726541
628.929,0.0732692
629.029,0.0738881
629.129,0.0745107
629.229,0.0751371
629.329,0.0757673
629.429,0.0764013
629.529,0.0770391
629.629,0.0776808
629.729,0.0783262
629.829,0.0789755
629.929,0.0796286
630.029,0.0802855
630.129,0.0809463
630.229,0.0816109
630.329,0.0822794
630.429,0.0829518
630.529,0.083628
630.629,0.0843081
630.729,0.084992
630.829,0.0856799
630.929,0.0863716
631.029,0.0870672
631.129,0.0877667
631.229,0.0884701
631.329,0.0891774
631.429,0.0898886
631.529,0.0906037
631.629,0.0913228
631.729,0.0920457
631.829,0.0927726
631.929,0.0935033
632.029,0.094238
632.129,0.0949767
632.229,0.0957192
632.329,0.0964657
632.429,0.0972161
632.529,0.0979704
632.629,0.0987287
632.729,0.0994909
632.829,0.100257
632.929,0.101027
633.029,0.101801
633.129,0.102579
633.229,0.103361
633.329,0.104147
633.429,0.104936
633.529,0.10573
633.629,0.106528
633.729,0.107329
633.829,0.108135
633.929,0.108944
634.029,0.109757
634.129,0.110574
634.229,0.111395
634.329,0.11222
634.429,0.113049
634.529,0.113882
634.629,0.114719
634.729,0.11556
634.829,0.116404
634.929,0.117253
635.029,0.118105
635.129,0.118961
635.229,0.119821
635.329,0.120685
635.429,0.121553
635.529,0.122424
635.629,0.1233
635.729,0.124179
635.829,0.125062
635.929,0.125949
636.029,0.12684
636.129,0.127735
636.229,0.128633
636.329,0.129536
636.429,0.130442
636.529,0.131351
636.629,0.132265
636.729,0.133182
636.829,0.134103
636.929,0.135028
637.029,0.135957
637.129,0.136889
637.229,0.137825
637.329,0.138765
637.429,0.139708
637.529,0.140655
637.629,0.141606
637.729,0.14256
637.829,0.143518
637.929,0.14448
638.029,0.145445
638.129,0.146414
638.229,0.147386
638.329,0.148362
638.429,0.149342
638.529,0.150325
638.629,0.151312
638.729,0.152302
638.829,0.153295
638.929,0.154292
639.029,0.155293
639.129,0.156297
639.229,0.157304
639.329,0.158315
639.429,0.159329
639.529,0.160347
639.629,0.161368
639.729,0.162392
639.829,0.16342
639.929,0.164451
640.029,0.165485
640.129,0.166522
640.229,0.167563
640.329,0.168607
640.429,0.169654
640.529,0.170704
640.629,0.171758
640.729,0.172815
640.829,0.173874
640.929,0.174937
641.029,0.176003
641.129,0.177072
641.229,0.178144
641.329,0.179219
641.429,0.180297
641.529,0.181377
641.629,0.182461
641.729,0.183548
641.829,0.184638
641.929,0.18573
642.029,0.186825
642.129,0.187923
642.229,0.189024
642.329,0.190128
642.429,0.191234
642.529,0.192343
642.629,0.193455
642.729,0.194569
642.829,0.195686
642.929,0.196805
643.029,0.197927
643.129,0.199052
643.229,0.200179
643.329,0.201308
643.429,0.20244
643.529,0.203575
643.629,0.204711
643.729,0.20585
643.829,0.206992
643.929,0.208135
644.029,0.209281
644.129,0.210429
644.229,0.21158
644.329,0.212732
644.429,0.213886
644.529,0.215043
644.629,0.216202
644.729,0.217362
644.829,0.218525
644.929,0.21969
645.029,0.220856
645.129,0.222024
645.229,0.223195
645.329,0.224367
645.429,0.22554
645.529,0.226716
645.629,0.227893
645.729,0.229072
645.829,0.230252
645.929,0.231434
646.029,0.232618
646.129,0.233803
646.229,0.234989
646.329,0.236177
646.429,0.237366
646.529,0.238557
646.629,0.239749
646.729,0.240942
646.829,0.242137
646.929,0.243332
647.029,0.244529
647.129,0.245727
647.229,0.246926
647.329,0.248126
647.429,0.249327
647.529,0.250528
647.629,0.251731
647.729,0.252935
647.829,0.254139
647.929,0.255344
648.029,0.25655
648.129,0.257757
648.229,0.258964
648.329,0.260172
648.429,0.26138
648.529,0.262589
648.629,0.263798
648.729,0.265008
648.829,0.266218
648.929,0.267428
649.029,0.268639
649.129,0.26985
649.229,0.271061
649.329,0.272272
649.429,0.273483
649.529,0.274695
649.629,0.275906
649.729,0.277117
649.829,0.278328
649.929,0.279539
650.029,0.28075
650.129,0.281961
650.229,0.283171
650.329,0.284381
650.429,0.28559
650.529,0.2868
650.629,0.288008
650.729,0.289216
650.829,0.290424
650.929,0.29163
651.029,0.292837
651.129,0.294042
651.229,0.295247
651.329,0.29645
651.429,0.297653
651.529,0.298855
651.629,0.300056
651.729,0.301256
651.829,0.302455
651.929,0.303653
652.029,0.304849
652.129,0.306045
652.229,0.307239
652.329,0.308431
652.429,0.309622
652.529,0.310812
652.629,0.312
652.729,0.313187
652.829,0.314372
652.929,0.315556
653.029,0.316737
653.129,0.317917
653.229,0.319096
653.329,0.320272
653.429,0.321446
653.529,0.322619
653.629,0.323789
653.729,0.324957
653.829,0.326123
653.929,0.327287
654.029,0.328449
654.129,0.329608
654.229,0.330765
654.329,0.33192
654.429,0.333072
654.529,0.334222
654.629,0.335369
654.729,0.336514
654.829,0.337656
654.929,0.338795
655.029,0.339931
655.129,0.341065
655.229,0.342195
655.329,0.343323
655.429,0.344448
655.529,0.345569
655.629,0.346688
655.729,0.347803
655.829,0.348916
655.929,0.350025
656.029,0.35113
656.129,0.352233
656.229,0.353331
656.329,0.354427
656.429,0.355519
656.529,0.356607
656.629,0.357692
656.729,0.358773
656.829,0.35985
656.929,0.360923
657.029,0.361993
657.129,0.363059
657.229,0.36412
657.329,0.365178
657.429,0.366232
657.529,0.367281
657.629,0.368327
657.729,0.369368
657.829,0.370405
657.929,0.371437
658.029,0.372466
658.129,0.37349
658.229,0.374509
658.329,0.375524
658.429,0.376534
658.529,0.377539
658.629,0.37854
658.729,0.379536
658.829,0.380528
658.929,0.381514
659.029,0.382496
659.129,0.383473
659.229,0.384444
659.329,0.385411
659.429,0.386373
659.529,0.387329
659.629,0.38828
659.729,0.389226
659.829,0.390167
659.929,0.391102
660.029,0.392032
660.129,0.392957
660.229,0.393876
660.329,0.394789
660.429,0.395697
660.529,0.3966
660.629,0.397496
660.729,0.398387
660.829,0.399272
660.929,0.400151
661.029,0.401025
661.129,0.401892
661.229,0.402754
661.329,0.403609
661.429,0.404459
661.529,0.405302
661.629,0.406139
661.729,0.40697
661.829,0.407795
661.929,0.408614
662.029,0.409426
662.129,0.410231
662.229,0.411031
662.329,0.411824
662.429,0.41261
662.529,0.41339
662.629,0.414163
662.729,0.41493
662.829,0.41569
662.929,0.416443
663.029,0.417189
663.129,0.417929
663.229,0.418662
663.329,0.419388
663.429,0.420107
663.529,0.420819
663.629,0.421524
663.729,0.422222
663.829,0.422913
663.929,0.423597
664.029,0.424274
664.129,0.424943
664.229,0.425605
664.329,0.42626
664.429,0.426908
664.529,0.427548
664.629,0.428181
664.729,0.428807
664.829,0.429425
664.929,0.430035
665.029,0.430639
665.129,0.431234
665.229,0.431822
665.329,0.432402
665.429,0.432975
665.529,0.43354
665.629,0.434097
665.729,0.434647
665.829,0.435189
665.929,0.435723
666.029,0.436249
666.129,0.436767
666.229,0.437278
666.329,0.43778
666.429,0.438274
666.529,0.438761
666.629,0.439239
666.729,0.43971
666.829,0.440172
666.929,0.440627
667.029,0.441073
667.129,0.441511
667.229,0.441941
667.329,0.442362
667.429,0.442776
667.529,0.443181
667.629,0.443578
667.729,0.443966
667.829,0.444347
667.929,0.444719
668.029,0.445082
668.129,0.445438
668.229,0.445784
668.329,0.446123
668.429,0.446453
668.529,0.446775
668.629,0.447088
668.729,0.447392
668.829,0.447688
668.929,0.447976
669.029,0.448255
669.129,0.448525
669.229,0.448787
669.329,0.44904
669.429,0.449285
669.529,0.449521
669.629,0.449749
669.729,0.449967
669.829,0.450178
669.929,0.450379
670.029,0.450572
670.129,0.450756
670.229,0.450931
670.329,0.451098
670.429,0.451256
670.529,0.451405
670.629,0.451546
670.729,0.451677
670.829,0.4518
670.929,0.451914
671.029,0.45202
671.129,0.452116
671.229,0.452204
671.329,0.452283
671.429,0.452354
671.529,0.452415
671.629,0.452468
671.729,0.452512
671.829,0.452547
671.929,0.452573
672.029,0.45259
672.129,0.452599
672.229,0.452599
672.329,0.45259
672.429,0.452572
672.529,0.452545
672.629,0.45251
672.729,0.452466
672.829,0.452413
672.929,0.452351
673.029,0.45228
673.129,0.452201
673.229,0.452113
673.329,0.452015
673.429,0.45191
673.529,0.451795
673.629,0.451672
673.729,0.45154
673.829,0.451399
673.929,0.451249
674.029,0.451091
674.129,0.450924
674.229,0.450748
674.329,0.450564
674.429,0.450371
674.529,0.450169
674.629,0.449958
674.729,0.449739
674.829,0.449511
674.929,0.449275
675.029,0.44903
675.129,0.448776
675.229,0.448514
675.329,0.448243
675.429,0.447964
675.529,0.447676
675.629,0.447379
675.729,0.447074
675.829,0.446761
675.929,0.446439
676.029,0.446109
676.129,0.44577
676.229,0.445423
676.329,0.445067
676.429,0.444703
676.529,0.444331
676.629,0.44395
676.729,0.443561
676.829,0.443164
676.929,0.442758
677.029,0.442344
677.129,0.441922
677.229,0.441492
677.329,0.441054
677.429,0.440607
677.529,0.440153
677.629,0.43969
677.729,0.439219
677.829,0.43874
677.929,0.438254
678.029,0.437759
678.129,0.437256
678.229,0.436745
678.329,0.436227
678.429,0.4357
678.529,0.435166
678.629,0.434624
678.729,0.434074
678.829,0.433516
678.929,0.432951
679.029,0.432378
679.129,0.431797
679.229,0.431209
679.329,0.430613
679.429,0.43001
679.529,0.429399
679.629,0.42878
679.729,0.428154
679.829,0.427521
679.929,0.42688
680.029,0.426232
680.129,0.425577
680.229,0.424915
680.329,0.424245
680.429,0.423568
680.529,0.422884
680.629,0.422192
680.729,0.421494
680.829,0.420789
680.929,0.420076
681.029,0.419357
681.129,0.418631
681.229,0.417898
681.329,0.417158
681.429,0.416411
681.529,0.415657
681.629,0.414897
681.729,0.41413
681.829,0.413357
681.929,0.412577
682.029,0.41179
682.129,0.410997
682.229,0.410197
682.329,0.409391
682.429,0.408579
682.529,0.40776
682.629,0.406935
682.729,0.406104
682.829,0.405266
682.929,0.404423
683.029,0.403573
683.129,0.402717
683.229,0.401855
683.329,0.400988
683.429,0.400114
683.529,0.399235
683.629,0.398349
683.729,0.397458
683.829,0.396561
683.929,0.395659
684.029,0.394751
684.129,0.393837
684.229,0.392918
684.329,0.391993
684.429,0.391063
684.529,0.390127
684.629,0.389186
684.729,0.38824
684.829,0.387288
684.929,0.386332
685.029,0.38537
685.129,0.384403
685.229,0.383431
685.329,0.382454
685.429,0.381472
685.529,0.380486
685.629,0.379494
685.729,0.378498
685.829,0.377497
685.929,0.376491
686.029,0.37548
686.129,0.374465
686.229,0.373446
686.329,0.372422
686.429,0.371394
686.529,0.370361
686.629,0.369324
686.729,0.368282
686.829,0.367237
686.929,0.366187
687.029,0.365133
687.129,0.364075
687.229,0.363013
687.329,0.361947
687.429,0.360878
687.529,0.359804
687.629,0.358727
687.729,0.357645
687.829,0.356561
687.929,0.355472
688.029,0.35438
688.129,0.353285
688.229,0.352186
688.329,0.351083
688.429,0.349977
688.529,0.348868
688.629,0.347756
688.729,0.34664
688.829,0.345522
688.929,0.3444
689.029,0.343275
689.129,0.342147
689.229,0.341016
689.329,0.339883
689.429,0.338746
689.529,0.337607
689.629,0.336465
689.729,0.33532
689.829,0.334173
689.929,0.333023
690.029,0.331871
690.129,0.330716
690.229,0.329559
690.329,0.328399
690.429,0.327238
690.529,0.326074
690.629,0.324907
690.729,0.323739
690.829,0.322569
690.929,0.321396
691.029,0.320222
691.129,0.319045
691.229,0.317867
691.329,0.316687
691.429,0.315505
691.529,0.314322
691.629,0.313137
691.729,0.31195
691.829,0.310761
691.929,0.309572
692.029,0.30838
692.129,0.307188
692.229,0.305994
692.329,0.304798
692.429,0.303602
692.529,0.302404
692.629,0.301205
692.729,0.300005
692.829,0.298804
692.929,0.297602
693.029,0.296399
693.129,0.295195
693.229,0.293991
693.329,0.292785
693.429,0.291579
693.529,0.290372
693.629,0.289165
693.729,0.287957
693.829,0.286748
693.929,0.285539
694.029,0.284329
694.129,0.283119
694.229,0.281909
694.329,0.280699
694.429,0.279488
694.529,0.278277
694.629,0.277066
694.729,0.275854
694.829,0.274643
694.929,0.273432
695.029,0.27222
695.129,0.271009
695.229,0.269798
695.329,0.268587
695.429,0.267377
695.529,0.266166
695.629,0.264956
695.729,0.263747
695.829,0.262537
695.929,0.261329
696.029,0.26012
696.129,0.258913
696.229,0.257705
696.329,0.256499
696.429,0.255293
696.529,0.254088
696.629,0.252883
696.729,0.25168
696.829,0.250477
696.929,0.249275
697.029,0.248074
697.129,0.246875
697.229,0.245676
697.329,0.244478
697.429,0.243281
697.529,0.242086
697.629,0.240891
697.729,0.239698
697.829,0.238506
697.929,0.237316
698.029,0.236126
698.129,0.234938
698.229,0.233752
698.329,0.232567
698.429,0.231384
698.529,0.230202
698.629,0.229021
698.729,0.227843
698.829,0.226666
698.929,0.22549
699.029,0.224316
699.129,0.223145
699.229,0.221974
699.329,0.220806
699.429,0.21964
699.529,0.218475
699.629,0.217313
699.729,0.216152
699.829,0.214994
699.929,0.213837
700.029,0.212683
700.129,0.21153
700.229,0.21038
700.329,0.209232
700.429,0.208087
700.529,0.206943
700.629,0.205802
700.729,0.204663
700.829,0.203526
700.929,0.202392
701.029,0.20126
701.129,0.200131
701.229,0.199004
701.329,0.197879
701.429,0.196757
701.529,0.195638
701.629,0.194521
701.729,0.193407
701.829,0.192296
701.929,0.191187
702.029,0.190081
702.129,0.188977
702.229,0.187876
702.329,0.186778
702.429,0.185683
702.529,0.184591
702.629,0.183502
702.729,0.182415
702.829,0.181331
702.929,0.180251
703.029,0.179173
703.129,0.178098
703.229,0.177026
703.329,0.175957
703.429,0.174892
703.529,0.173829
703.629,0.172769
703.729,0.171713
703.829,0.17066
703.929,0.169609
704.029,0.168562
704.129,0.167519
704.229,0.166478
704.329,0.165441
704.429,0.164407
704.529,0.163376
704.629,0.162348
704.729,0.161324
704.829,0.160303
704.929,0.159286
705.029,0.158272
705.129,0.157261
705.229,0.156254
705.329,0.15525
705.429,0.15425
705.529,0.153253
705.629,0.152259
705.729,0.151269
705.829,0.150283
705.929,0.1493
706.029,0.148321
706.129,0.147345
706.229,0.146372
706.329,0.145404
706.429,0.144439
706.529,0.143477
706.629,0.142519
706.729,0.141565
706.829,0.140615
706.929,0.139668
707.029,0.138725
707.129,0.137785
707.229,0.136849
707.329,0.135917
707.429,0.134989
707.529,0.134064
707.629,0.133143
707.729,0.132226
707.829,0.131312
707.929,0.130403
708.029,0.129497
708.129,0.128595
708.229,0.127697
708.329,0.126802
708.429,0.125912
708.529,0.125025
708.629,0.124142
708.729,0.123263
708.829,0.122387
708.929,0.121516
709.029,0.120648
709.129,0.119784
709.229,0.118924
709.329,0.118068
709.429,0.117216
709.529,0.116368
709.629,0.115524
709.729,0.114683
709.829,0.113847
709.929,0.113014
710.029,0.112185
710.129,0.11136
710.229,0.110539
710.329,0.109722
710.429,0.108909
710.529,0.1081
710.629,0.107295
710.729,0.106493
710.829,0.105696
710.929,0.104903
711.029,0.104113
711.129,0.103327
711.229,0.102546
711.329,0.101768
711.429,0.100994
711.529,0.100224
711.629,0.0994583
711.729,0.0986963
711.829,0.0979382
711.929,0.097184
712.029,0.0964338
712.129,0.0956874
712.229,0.0949451
712.329,0.0942066
712.429,0.0934721
712.529,0.0927415
712.629,0.0920148
712.729,0.091292
712.829,0.0905731
712.929,0.0898582
713.029,0.0891471
713.129,0.08844
713.229,0.0877368
713.329,0.0870374
713.429,0.086342
713.529,0.0856504
713.629,0.0849627
713.729,0.084279
713.829,0.083599
713.929,0.082923
714.029,0.0822508
714.129,0.0815825
714.229,0.080918
714.329,0.0802574
714.429,0.0796006
714.529,0.0789477
714.629,0.0782986
714.729,0.0776533
714.829,0.0770119
714.929,0.0763742
715.029,0.0757404
715.129,0.0751103
715.229,0.0744841
715.329,0.0738616
715.429,0.0732429
715.529,0.072628
715.629,0.0720168
715.729,0.0714094
715.829,0.0708057
715.929,0.0702058
716.029,0.0696096
716.129,0.0690171
716.229,0.0684283
716.329,0.0678432
716.429,0.0672618
716.529,0.0666841
716.629,0.0661101
716.729,0.0655398
716.829,0.0649731
716.929,0.06441
717.029,0.0638506
717.129,0.0632948
717.229,0.0627426
717.329,0.062194
717.429,0.0616491
717.529,0.0611077
717.629,0.0605699
717.729,0.0600356
717.829,0.0595049
717.929,0.0589778
718.029,0.0584541
718.129,0.057934
718.229,0.0574174
718.329,0.0569043
718.429,0.0563947
718.529,0.0558886
718.629,0.0553859
718.729,0.0548867
718.829,0.054391
718.929,0.0538986
719.029,0.0534097
719.129,0.0529242
719.229,0.052442
719.329,0.0519633
719.429,0.0514879
719.529,0.0510159
719.629,0.0505472
719.729,0.0500818
719.829,0.0496198
719.929,0.0491611
720.029,0.0487056
720.129,0.0482535
720.229,0.0478046
720.329,0.0473589
720.429,0.0469166
720.529,0.0464774
720.629,0.0460414
720.729,0.0456087
720.829,0.0451791
720.929,0.0447527
721.029,0.0443295
721.129,0.0439094
721.229,0.0434925
721.329,0.0430786
721.429,0.0426679
721.529,0.0422603
721.629,0.0418557
721.729,0.0414543
721.829,0.0410558
721.929,0.0406604
722.029,0.0402681
722.129,0.0398787
722.229,0.0394923
722.329,0.039109
722.429,0.0387285
722.529,0.0383511
722.629,0.0379766
722.729,0.037605
722.829,0.0372363
722.929,0.0368705
723.029,0.0365076
723.129,0.0361476
723.229,0.0357904
723.329,0.035436
723.429,0.0350845
723.529,0.0347358
723.629,0.0343899
723.729,0.0340468
723.829,0.0337064
723.929,0.0333688
724.029,0.0330339
724.129,0.0327018
724.229,0.0323723
724.329,0.0320456
724.429,0.0317215
724.529,0.0314001
724.629,0.0310814
724.729,0.0307653
724.829,0.0304518
724.929,0.0301409
725.029,0.0298326
725.129,0.0295269
725.229,0.0292237
725.329,0.0289231
725.429,0.0286251
725.529,0.0283295
725.629,0.0280365
725.729,0.027746
725.829,0.0274579
725.929,0.0271723
726.029,0.0268891
726.129,0.0266084
726.229,0.0263301
726.329,0.0260542
726.429,0.0257807
726.529,0.0255095
726.629,0.0252407
726.729,0.0249743
726.829,0.0247102
726.929,0.0244484
727.029,0.0241889
727.129,0.0239317
727.229,0.0236768
727.329,0.0234241
727.429,0.0231737
727.529,0.0229255
727.629,0.0226796
727.729,0.0224358
727.829,0.0221942
727.929,0.0219548
728.029,0.0217176
728.129,0.0214825
728.229,0.0212495
728.329,0.0210186
728.429,0.0207899
728.529,0.0205632
728.629,0.0203386
728.729,0.0201161
728.829,0.0198956
728.929,0.0196772
729.029,0.0194608
729.129,0.0192463
729.229,0.0190339
729.329,0.0188235
729.429,0.018615
729.529,0.0184084
729.629,0.0182039
729.729,0.0180012
729.829,0.0178004
729.929,0.0176015
730.029,0.0174046
730.129,0.0172094
730.229,0.0170162
730.329,0.0168248
730.429,0.0166352
730.529,0.0164474
730.629,0.0162614
730.729,0.0160773
730.829,0.0158949
730.929,0.0157142
731.029,0.0155353
731.129,0.0153582
731.229,0.0151828
731.329,0.015009
731.429,0.014837
731.529,0.0146667
731.629,0.014498
731.729,0.014331
731.829,0.0141657
731.929,0.014002
732.029,0.0138399
732.129,0.0136794
732.229,0.0135205
732.329,0.0133632
732.429,0.0132075
732.529,0.0130533
732.629,0.0129007
732.729,0.0127496
732.829,0.0126001
732.929,0.012452
733.029,0.0123055
733.129,0.0121604
733.229,0.0120169
733.329,0.0118747
733.429,0.0117341
733.529,0.0115949
733.629,0.0114571
733.729,0.0113207
733.829,0.0111857
733.929,0.0110521
734.029,0.0109199
734.129,0.0107891
734.229,0.0106596
734.329,0.0105315
734.429,0.0104047
734.529,0.0102793
734.629,0.0101552
734.729,0.0100323
734.829,0.00991078
734.929,0.00979052
735.029,0.00967153
735.129,0.0095538
735.229,0.00943732
735.329,0.00932208
735.429,0.00920807
735.529,0.00909527
735.629,0.00898368
735.729,0.00887329
735.829,0.00876408
735.929,0.00865605
736.029,0.00854919
736.129,0.00844348
736.229,0.00833891
736.329,0.00823548
736.429,0.00813317
736.529,0.00803198
736.629,0.00793189
736.729,0.0078329
736.829,0.00773499
736.929,0.00763816
737.029,0.00754239
737.129,0.00744768
737.229,0.00735401
737.329,0.00726138
737.429,0.00716978
737.529,0.00707919
737.629,0.00698962
737.729,0.00690104
737.829,0.00681345
737.929,0.00672685
738.029,0.00664121
738.129,0.00655654
738.229,0.00647282
738.329,0.00639004
738.429,0.00630821
738.529,0.00622729
738.629,0.0061473
738.729,0.00606822
738.829,0.00599003
738.929,0.00591274
739.029,0.00583633
739.129,0.0057608
739.229,0.00568614
739.329,0.00561233
739.429,0.00553937
739.529,0.00546726
739.629,0.00539597
739.729,0.00532552
739.829,0.00525588
739.929,0.00518705
740.029,0.00511903
740.129,0.00505179
740.229,0.00498535
740.329,0.00491968
740.429,0.00485478
740.529,0.00479064
740.629,0.00472726
740.729,0.00466463
740.829,0.00460274
740.929,0.00454158
741.029,0.00448114
741.129,0.00442143
741.229,0.00436242
741.329,0.00430412
741.429,0.00424652
741.529,0.0041896
741.629,0.00413337
741.729,0.00407781
741.829,0.00402292
741.929,0.00396869
742.029,0.00391512
742.129,0.00386219
742.229,0.00380991
742.329,0.00375826
742.429,0.00370724
742.529,0.00365684
742.629,0.00360705
742.729,0.00355788
742.829,0.0035093
742.929,0.00346133
743.029,0.00341394
743.129,0.00336713
743.229,0.0033209
743.329,0.00327524
743.429,0.00323015
743.529,0.00318562
743.629,0.00314164
743.729,0.0030982
743.829,0.00305531
743.929,0.00301295
744.029,0.00297112
744.129,0.00292982
744.229,0.00288903
744.329,0.00284875
744.429,0.00280899
744.529,0.00276972
744.629,0.00273095
744.729,0.00269267
744.829,0.00265487
744.929,0.00261755
745.029,0.00258071
745.129,0.00254434
745.229,0.00250843
745.329,0.00247298
745.429,0.00243798
745.529,0.00240343
745.629,0.00236933
745.729,0.00233566
745.829,0.00230243
745.929,0.00226962
746.029,0.00223724
746.129,0.00220528
746.229,0.00217373
746.329,0.0021426
746.429,0.00211186
746.529,0.00208153
746.629,0.00205159
746.729,0.00202205
746.829,0.00199289
746.929,0.00196411
747.029,0.00193571
747.129,0.00190769
747.229,0.00188003
747.329,0.00185274
747.429,0.00182581
747.529,0.00179924
747.629,0.00177301
747.729,0.00174714
747.829,0.00172161
747.929,0.00169642
748.029,0.00167157
748.129,0.00164704
748.229,0.00162285
748.329,0.00159898
748.429,0.00157543
748.529,0.0015522
748.629,0.00152928
748.729,0.00150667
748.829,0.00148437
748.929,0.00146236
749.029,0.00144066
749.129,0.00141925
749.229,0.00139813
749.329,0.00137729
749.429,0.00135675
749.529,0.00133648
749.629,0.00131649
749.729,0.00129677
749.829,0.00127732
749.929,0.00125815
750.029,0.00123923
750.129,0.00122057
750.229,0.00120218
750.329,0.00118403
750.429,0.00116614
750.529,0.0011485
750.629,0.0011311
750.729,0.00111394
750.829,0.00109702
750.929,0.00108034
751.029,0.00106389
751.129,0.00104767
751.229,0.00103168
751.329,0.00101591
751.429,0.00100037
751.529,0.000985039
751.629,0.000969927
751.729,0.000955028
751.829,0.000940341
751.929,0.000925861
752.029,0.000911586
752.129,0.000897514
752.229,0.000883642
752.329,0.000869967
752.429,0.000856487
752.529,0.0008432
752.629,0.000830102
752.729,0.000817193
752.829,0.000804468
752.929,0.000791926
753.029,0.000779564
753.129,0.000767381
753.229,0.000755373
753.329,0.000743539
753.429,0.000731875
753.529,0.000720381
753.629,0.000709053
753.729,0.00069789
753.829,0.000686889
753.929,0.000676049
754.029,0.000665366
754.129,0.00065484
754.229,0.000644468
754.329,0.000634247
754.429,0.000624177
754.529,0.000614254
754.629,0.000604478
754.729,0.000594845
754.829,0.000585355
754.929,0.000576005
755.029,0.000566793
755.129,0.000557717
755.229,0.000548776
755.329,0.000539968
755.429,0.000531291
755.529,0.000522744
755.629,0.000514323