File: ingan/robins_1999/in36/raman/curve_2_fit.dat
609.729,1.37045e-11
609.829,1.45199e-11
609.929,1.53827e-11
610.029,1.62957e-11
610.129,1.72617e-11
610.229,1.82838e-11
610.329,1.93651e-11
610.429,2.05089e-11
610.529,2.17189e-11
610.629,2.29988e-11
610.729,2.43524e-11
610.829,2.57839e-11
610.929,2.72978e-11
611.029,2.88987e-11
611.129,3.05914e-11
611.229,3.2381e-11
611.329,3.42731e-11
611.429,3.62733e-11
611.529,3.83877e-11
611.629,4.06226e-11
611.729,4.29847e-11
611.829,4.54811e-11
611.929,4.81193e-11
612.029,5.09072e-11
612.129,5.38529e-11
612.229,5.69653e-11
612.329,6.02536e-11
612.429,6.37274e-11
612.529,6.73969e-11
612.629,7.1273e-11
612.729,7.5367e-11
612.829,7.96908e-11
612.929,8.4257e-11
613.029,8.90789e-11
613.129,9.41705e-11
613.229,9.95464e-11
613.329,1.05222e-10
613.429,1.11214e-10
613.529,1.17539e-10
613.629,1.24216e-10
613.729,1.31263e-10
613.829,1.38701e-10
613.929,1.4655e-10
614.029,1.54834e-10
614.129,1.63574e-10
614.229,1.72797e-10
614.329,1.82527e-10
614.429,1.92792e-10
614.529,2.03621e-10
614.629,2.15043e-10
614.729,2.27091e-10
614.829,2.39799e-10
614.929,2.532e-10
615.029,2.67332e-10
615.129,2.82235e-10
615.229,2.97948e-10
615.329,3.14514e-10
615.429,3.3198e-10
615.529,3.50393e-10
615.629,3.69801e-10
615.729,3.90259e-10
615.829,4.11821e-10
615.929,4.34545e-10
616.029,4.58492e-10
616.129,4.83727e-10
616.229,5.10316e-10
616.329,5.38331e-10
616.429,5.67846e-10
616.529,5.98939e-10
616.629,6.31693e-10
616.729,6.66193e-10
616.829,7.0253e-10
616.929,7.408e-10
617.029,7.81102e-10
617.129,8.23541e-10
617.229,8.68229e-10
617.329,9.1528e-10
617.429,9.64816e-10
617.529,1.01696e-09
617.629,1.07186e-09
617.729,1.12965e-09
617.829,1.19046e-09
617.929,1.25447e-09
618.029,1.32184e-09
618.129,1.39273e-09
618.229,1.46732e-09
618.329,1.5458e-09
618.429,1.62837e-09
618.529,1.71524e-09
618.629,1.80662e-09
618.729,1.90274e-09
618.829,2.00384e-09
618.929,2.11017e-09
619.029,2.222e-09
619.129,2.33959e-09
619.229,2.46325e-09
619.329,2.59326e-09
619.429,2.72996e-09
619.529,2.87367e-09
619.629,3.02474e-09
619.729,3.18354e-09
619.829,3.35046e-09
619.929,3.52589e-09
620.029,3.71026e-09
620.129,3.904e-09
620.229,4.10759e-09
620.329,4.32151e-09
620.429,4.54627e-09
620.529,4.78239e-09
620.629,5.03044e-09
620.729,5.291e-09
620.829,5.56469e-09
620.929,5.85214e-09
621.029,6.15403e-09
621.129,6.47106e-09
621.229,6.80396e-09
621.329,7.15352e-09
621.429,7.52052e-09
621.529,7.90583e-09
621.629,8.31033e-09
621.729,8.73493e-09
621.829,9.18062e-09
621.929,9.6484e-09
622.029,1.01393e-08
622.129,1.06545e-08
622.229,1.11952e-08
622.329,1.17625e-08
622.429,1.23577e-08
622.529,1.29821e-08
622.629,1.36372e-08
622.729,1.43244e-08
622.829,1.50452e-08
622.929,1.58012e-08
623.029,1.65941e-08
623.129,1.74257e-08
623.229,1.82977e-08
623.329,1.9212e-08
623.429,2.01706e-08
623.529,2.11757e-08
623.629,2.22294e-08
623.729,2.33339e-08
623.829,2.44917e-08
623.929,2.57053e-08
624.029,2.69771e-08
624.129,2.831e-08
624.229,2.97067e-08
624.329,3.11703e-08
624.429,3.27038e-08
624.529,3.43104e-08
624.629,3.59936e-08
624.729,3.77568e-08
624.829,3.96037e-08
624.929,4.15382e-08
625.029,4.35643e-08
625.129,4.56861e-08
625.229,4.79081e-08
625.329,5.02348e-08
625.429,5.26709e-08
625.529,5.52215e-08
625.629,5.78918e-08
625.729,6.06871e-08
625.829,6.36131e-08
625.929,6.66758e-08
626.029,6.98812e-08
626.129,7.32358e-08
626.229,7.67464e-08
626.329,8.04198e-08
626.429,8.42634e-08
626.529,8.82848e-08
626.629,9.2492e-08
626.729,9.68931e-08
626.829,1.01497e-07
626.929,1.06312e-07
627.029,1.11349e-07
627.129,1.16616e-07
627.229,1.22124e-07
627.329,1.27884e-07
627.429,1.33907e-07
627.529,1.40203e-07
627.629,1.46786e-07
627.729,1.53668e-07
627.829,1.60862e-07
627.929,1.68381e-07
628.029,1.7624e-07
628.129,1.84454e-07
628.229,1.93037e-07
628.329,2.02006e-07
628.429,2.11378e-07
628.529,2.2117e-07
628.629,2.314e-07
628.729,2.42087e-07
628.829,2.5325e-07
628.929,2.64911e-07
629.029,2.7709e-07
629.129,2.89809e-07
629.229,3.03092e-07
629.329,3.16963e-07
629.429,3.31446e-07
629.529,3.46568e-07
629.629,3.62355e-07
629.729,3.78837e-07
629.829,3.96041e-07
629.929,4.14e-07
630.029,4.32743e-07
630.129,4.52305e-07
630.229,4.72719e-07
630.329,4.94022e-07
630.429,5.16251e-07
630.529,5.39443e-07
630.629,5.6364e-07
630.729,5.88882e-07
630.829,6.15214e-07
630.929,6.42681e-07
631.029,6.71328e-07
631.129,7.01206e-07
631.229,7.32364e-07
631.329,7.64856e-07
631.429,7.98736e-07
631.529,8.34061e-07
631.629,8.7089e-07
631.729,9.09284e-07
631.829,9.49308e-07
631.929,9.91027e-07
632.029,1.03451e-06
632.129,1.07983e-06
632.229,1.12706e-06
632.329,1.17627e-06
632.429,1.22756e-06
632.529,1.28099e-06
632.629,1.33666e-06
632.729,1.39465e-06
632.829,1.45507e-06
632.929,1.518e-06
633.029,1.58354e-06
633.129,1.65181e-06
633.229,1.7229e-06
633.329,1.79693e-06
633.429,1.87402e-06
633.529,1.95428e-06
633.629,2.03785e-06
633.729,2.12484e-06
633.829,2.21541e-06
633.929,2.30967e-06
634.029,2.40779e-06
634.129,2.50991e-06
634.229,2.61618e-06
634.329,2.72678e-06
634.429,2.84185e-06
634.529,2.96159e-06
634.629,3.08616e-06
634.729,3.21576e-06
634.829,3.35057e-06
634.929,3.49081e-06
635.029,3.63667e-06
635.129,3.78837e-06
635.229,3.94613e-06
635.329,4.11019e-06
635.429,4.28079e-06
635.529,4.45817e-06
635.629,4.64258e-06
635.729,4.83431e-06
635.829,5.03361e-06
635.929,5.24078e-06
636.029,5.45611e-06
636.129,5.67991e-06
636.229,5.91249e-06
636.329,6.15418e-06
636.429,6.40533e-06
636.529,6.66628e-06
636.629,6.93739e-06
636.729,7.21905e-06
636.829,7.51164e-06
636.929,7.81557e-06
637.029,8.13125e-06
637.129,8.45912e-06
637.229,8.79962e-06
637.329,9.15321e-06
637.429,9.52037e-06
637.529,9.9016e-06
637.629,1.02974e-05
637.729,1.07083e-05
637.829,1.11349e-05
637.929,1.15777e-05
638.029,1.20372e-05
638.129,1.25142e-05
638.229,1.30092e-05
638.329,1.35229e-05
638.429,1.4056e-05
638.529,1.46091e-05
638.629,1.51829e-05
638.729,1.57782e-05
638.829,1.63957e-05
638.929,1.70363e-05
639.029,1.77007e-05
639.129,1.83898e-05
639.229,1.91045e-05
639.329,1.98456e-05
639.429,2.06141e-05
639.529,2.14109e-05
639.629,2.2237e-05
639.729,2.30934e-05
639.829,2.39812e-05
639.929,2.49015e-05
640.029,2.58553e-05
640.129,2.6844e-05
640.229,2.78685e-05
640.329,2.89302e-05
640.429,3.00304e-05
640.529,3.11703e-05
640.629,3.23513e-05
640.729,3.35748e-05
640.829,3.48423e-05
640.929,3.61551e-05
641.029,3.7515e-05
641.129,3.89234e-05
641.229,4.03819e-05
641.329,4.18923e-05
641.429,4.34563e-05
641.529,4.50757e-05
641.629,4.67523e-05
641.729,4.8488e-05
641.829,5.02848e-05
641.929,5.21446e-05
642.029,5.40697e-05
642.129,5.6062e-05
642.229,5.81239e-05
642.329,6.02576e-05
642.429,6.24655e-05
642.529,6.47499e-05
642.629,6.71133e-05
642.729,6.95584e-05
642.829,7.20877e-05
642.929,7.47041e-05
643.029,7.74101e-05
643.129,8.02089e-05
643.229,8.31033e-05
643.329,8.60963e-05
643.429,8.91912e-05
643.529,9.23912e-05
643.629,9.56996e-05
643.729,9.91198e-05
643.829,0.000102655
643.929,0.00010631
644.029,0.000110087
644.129,0.000113991
644.229,0.000118026
644.329,0.000122195
644.429,0.000126503
644.529,0.000130953
644.629,0.000135552
644.729,0.000140303
644.829,0.00014521
644.929,0.000150279
645.029,0.000155515
645.129,0.000160922
645.229,0.000166506
645.329,0.000172272
645.429,0.000178226
645.529,0.000184374
645.629,0.00019072
645.729,0.000197272
645.829,0.000204036
645.929,0.000211017
646.029,0.000218223
646.129,0.000225659
646.229,0.000233333
646.329,0.000241253
646.429,0.000249424
646.529,0.000257855
646.629,0.000266553
646.729,0.000275525
646.829,0.000284781
646.929,0.000294328
647.029,0.000304175
647.129,0.00031433
647.229,0.000324803
647.329,0.000335602
647.429,0.000346737
647.529,0.000358217
647.629,0.000370053
647.729,0.000382254
647.829,0.000394831
647.929,0.000407794
648.029,0.000421156
648.129,0.000434925
648.229,0.000449115
648.329,0.000463737
648.429,0.000478803
648.529,0.000494325
648.629,0.000510316
648.729,0.00052679
648.829,0.000543758
648.929,0.000561236
649.029,0.000579237
649.129,0.000597775
649.229,0.000616865
649.329,0.000636523
649.429,0.000656762
649.529,0.000677601
649.629,0.000699053
649.729,0.000721136
649.829,0.000743868
649.929,0.000767264
650.029,0.000791343
650.129,0.000816124
650.229,0.000841624
650.329,0.000867863
650.429,0.00089486
650.529,0.000922635
650.629,0.000951209
650.729,0.000980601
650.829,0.00101083
650.929,0.00104193
651.029,0.00107391
651.129,0.0011068
651.229,0.00114062
651.329,0.00117539
651.429,0.00121115
651.529,0.0012479
651.629,0.00128569
651.729,0.00132453
651.829,0.00136446
651.929,0.00140549
652.029,0.00144766
652.129,0.001491
652.229,0.00153553
652.329,0.00158129
652.429,0.0016283
652.529,0.00167659
652.629,0.0017262
652.729,0.00177716
652.829,0.00182951
652.929,0.00188327
653.029,0.00193848
653.129,0.00199517
653.229,0.00205339
653.329,0.00211316
653.429,0.00217453
653.529,0.00223753
653.629,0.0023022
653.729,0.00236858
653.829,0.00243671
653.929,0.00250663
654.029,0.00257839
654.129,0.00265203
654.229,0.00272758
654.329,0.00280511
654.429,0.00288464
654.529,0.00296622
654.629,0.00304992
654.729,0.00313576
654.829,0.0032238
654.929,0.00331409
655.029,0.00340669
655.129,0.00350164
655.229,0.00359899
655.329,0.0036988
655.429,0.00380113
655.529,0.00390602
655.629,0.00401355
655.729,0.00412375
655.829,0.0042367
655.929,0.00435245
656.029,0.00447106
656.129,0.0045926
656.229,0.00471713
656.329,0.00484471
656.429,0.00497541
656.529,0.00510929
656.629,0.00524643
656.729,0.00538688
656.829,0.00553072
656.929,0.00567803
657.029,0.00582887
657.129,0.00598331
657.229,0.00614144
657.329,0.00630333
657.429,0.00646904
657.529,0.00663868
657.629,0.0068123
657.729,0.00699
657.829,0.00717185
657.929,0.00735794
658.029,0.00754836
658.129,0.00774318
658.229,0.0079425
658.329,0.00814641
658.429,0.008355
658.529,0.00856835
658.629,0.00878656
658.729,0.00900973
658.829,0.00923795
658.929,0.00947131
659.029,0.00970992
659.129,0.00995387
659.229,0.0102033
659.329,0.0104582
659.429,0.0107188
659.529,0.0109852
659.629,0.0112574
659.729,0.0115356
659.829,0.0118199
659.929,0.0121104
660.029,0.0124072
660.129,0.0127104
660.229,0.0130202
660.329,0.0133366
660.429,0.0136598
660.529,0.0139899
660.629,0.014327
660.729,0.0146712
660.829,0.0150227
660.929,0.0153816
661.029,0.0157481
661.129,0.0161221
661.229,0.016504
661.329,0.0168938
661.429,0.0172916
661.529,0.0176976
661.629,0.0181119
661.729,0.0185347
661.829,0.0189661
661.929,0.0194062
662.029,0.0198552
662.129,0.0203133
662.229,0.0207805
662.329,0.021257
662.429,0.0217431
662.529,0.0222387
662.629,0.0227441
662.729,0.0232595
662.829,0.0237849
662.929,0.0243206
663.029,0.0248667
663.129,0.0254233
663.229,0.0259907
663.329,0.0265689
663.429,0.0271582
663.529,0.0277587
663.629,0.0283706
663.729,0.0289941
663.829,0.0296292
663.929,0.0302763
664.029,0.0309354
664.129,0.0316067
664.229,0.0322905
664.329,0.0329868
664.429,0.0336959
664.529,0.034418
664.629,0.0351531
664.729,0.0359016
664.829,0.0366635
664.929,0.0374391
665.029,0.0382286
665.129,0.0390321
665.229,0.0398498
665.329,0.040682
665.429,0.0415287
665.529,0.0423902
665.629,0.0432667
665.729,0.0441584
665.829,0.0450654
665.929,0.045988
666.029,0.0469263
666.129,0.0478806
666.229,0.048851
666.329,0.0498377
666.429,0.050841
666.529,0.051861
666.629,0.0528979
666.729,0.053952
666.829,0.0550233
666.929,0.0561122
667.029,0.0572188
667.129,0.0583434
667.229,0.059486
667.329,0.060647
667.429,0.0618265
667.529,0.0630247
667.629,0.0642419
667.729,0.0654781
667.829,0.0667337
667.929,0.0680089
668.029,0.0693037
668.129,0.0706185
668.229,0.0719534
668.329,0.0733087
668.429,0.0746845
668.529,0.076081
668.629,0.0774984
668.729,0.078937
668.829,0.0803969
668.929,0.0818783
669.029,0.0833814
669.129,0.0849064
669.229,0.0864536
669.329,0.0880231
669.429,0.089615
669.529,0.0912297
669.629,0.0928672
669.729,0.0945278
669.829,0.0962116
669.929,0.0979189
670.029,0.0996499
670.129,0.101405
670.229,0.103183
670.329,0.104986
670.429,0.106814
670.529,0.108665
670.629,0.110542
670.729,0.112443
670.829,0.11437
670.929,0.116321
671.029,0.118298
671.129,0.120301
671.229,0.122329
671.329,0.124384
671.429,0.126464
671.529,0.12857
671.629,0.130703
671.729,0.132863
671.829,0.135048
671.929,0.137261
672.029,0.139501
672.129,0.141767
672.229,0.144061
672.329,0.146383
672.429,0.148731
672.529,0.151107
672.629,0.153511
672.729,0.155943
672.829,0.158403
672.929,0.160891
673.029,0.163406
673.129,0.16595
673.229,0.168523
673.329,0.171124
673.429,0.173753
673.529,0.176411
673.629,0.179098
673.729,0.181813
673.829,0.184557
673.929,0.18733
674.029,0.190132
674.129,0.192964
674.229,0.195824
674.329,0.198713
674.429,0.201631
674.529,0.204579
674.629,0.207556
674.729,0.210561
674.829,0.213597
674.929,0.216661
675.029,0.219755
675.129,0.222878
675.229,0.22603
675.329,0.229212
675.429,0.232422
675.529,0.235662
675.629,0.238932
675.729,0.24223
675.829,0.245557
675.929,0.248914
676.029,0.252299
676.129,0.255714
676.229,0.259157
676.329,0.262629
676.429,0.26613
676.529,0.269659
676.629,0.273217
676.729,0.276803
676.829,0.280418
676.929,0.284061
677.029,0.287732
677.129,0.291431
677.229,0.295157
677.329,0.298912
677.429,0.302694
677.529,0.306503
677.629,0.310339
677.729,0.314203
677.829,0.318093
677.929,0.32201
678.029,0.325953
678.129,0.329922
678.229,0.333918
678.329,0.337939
678.429,0.341986
678.529,0.346058
678.629,0.350155
678.729,0.354277
678.829,0.358424
678.929,0.362595
679.029,0.36679
679.129,0.371008
679.229,0.37525
679.329,0.379515
679.429,0.383803
679.529,0.388113
679.629,0.392446
679.729,0.3968
679.829,0.401176
679.929,0.405573
680.029,0.409991
680.129,0.414429
680.229,0.418887
680.329,0.423365
680.429,0.427862
680.529,0.432377
680.629,0.436912
680.729,0.441464
680.829,0.446034
680.929,0.450621
681.029,0.455225
681.129,0.459845
681.229,0.464481
681.329,0.469132
681.429,0.473798
681.529,0.478479
681.629,0.483173
681.729,0.487881
681.829,0.492602
681.929,0.497335
682.029,0.50208
682.129,0.506836
682.229,0.511603
682.329,0.516381
682.429,0.521168
682.529,0.525965
682.629,0.53077
682.729,0.535583
682.829,0.540404
682.929,0.545232
683.029,0.550066
683.129,0.554905
683.229,0.55975
683.329,0.5646
683.429,0.569453
683.529,0.57431
683.629,0.579169
683.729,0.58403
683.829,0.588893
683.929,0.593756
684.029,0.59862
684.129,0.603483
684.229,0.608345
684.329,0.613205
684.429,0.618063
684.529,0.622917
684.629,0.627768
684.729,0.632614
684.829,0.637454
684.929,0.642289
685.029,0.647117
685.129,0.651938
685.229,0.656751
685.329,0.661555
685.429,0.66635
685.529,0.671134
685.629,0.675908
685.729,0.68067
685.829,0.68542
685.929,0.690157
686.029,0.69488
686.129,0.699588
686.229,0.704281
686.329,0.708959
686.429,0.71362
686.529,0.718263
686.629,0.722888
686.729,0.727494
686.829,0.732081
686.929,0.736647
687.029,0.741193
687.129,0.745716
687.229,0.750217
687.329,0.754694
687.429,0.759148
687.529,0.763576
687.629,0.767979
687.729,0.772356
687.829,0.776706
687.929,0.781028
688.029,0.785322
688.129,0.789586
688.229,0.79382
688.329,0.798024
688.429,0.802197
688.529,0.806337
688.629,0.810444
688.729,0.814518
688.829,0.818557
688.929,0.822562
689.029,0.826531
689.129,0.830463
689.229,0.834359
689.329,0.838216
689.429,0.842035
689.529,0.845815
689.629,0.849555
689.729,0.853254
689.829,0.856913
689.929,0.860529
690.029,0.864103
690.129,0.867633
690.229,0.87112
690.329,0.874563
690.429,0.87796
690.529,0.881311
690.629,0.884616
690.729,0.887874
690.829,0.891085
690.929,0.894247
691.029,0.89736
691.129,0.900424
691.229,0.903438
691.329,0.906402
691.429,0.909314
691.529,0.912175
691.629,0.914983
691.729,0.917739
691.829,0.920442
691.929,0.92309
692.029,0.925685
692.129,0.928224
692.229,0.930709
692.329,0.933137
692.429,0.935509
692.529,0.937825
692.629,0.940083
692.729,0.942284
692.829,0.944427
692.929,0.946511
693.029,0.948537
693.129,0.950503
693.229,0.95241
693.329,0.954257
693.429,0.956043
693.529,0.957768
693.629,0.959433
693.729,0.961036
693.829,0.962577
693.929,0.964057
694.029,0.965474
694.129,0.966828
694.229,0.96812
694.329,0.969348
694.429,0.970513
694.529,0.971615
694.629,0.972652
694.729,0.973626
694.829,0.974536
694.929,0.975381
695.029,0.976161
695.129,0.976877
695.229,0.977528
695.329,0.978114
695.429,0.978635
695.529,0.97909
695.629,0.97948
695.729,0.979805
695.829,0.980065
695.929,0.980259
696.029,0.980387
696.129,0.98045
696.229,0.980447
696.329,0.980379
696.429,0.980245
696.529,0.980045
696.629,0.97978
696.729,0.97945
696.829,0.979054
696.929,0.978593
697.029,0.978067
697.129,0.977475
697.229,0.976819
697.329,0.976098
697.429,0.975312
697.529,0.974461
697.629,0.973547
697.729,0.972567
697.829,0.971524
697.929,0.970417
698.029,0.969247
698.129,0.968013
698.229,0.966716
698.329,0.965357
698.429,0.963934
698.529,0.96245
698.629,0.960903
698.729,0.959295
698.829,0.957625
698.929,0.955895
699.029,0.954103
699.129,0.952251
699.229,0.95034
699.329,0.948368
699.429,0.946338
699.529,0.944249
699.629,0.942101
699.729,0.939895
699.829,0.937632
699.929,0.935312
700.029,0.932934
700.129,0.930501
700.229,0.928012
700.329,0.925468
700.429,0.922869
700.529,0.920216
700.629,0.917509
700.729,0.914749
700.829,0.911936
700.929,0.90907
701.029,0.906154
701.129,0.903186
701.229,0.900168
701.329,0.8971
701.429,0.893982
701.529,0.890816
701.629,0.887601
701.729,0.884339
701.829,0.88103
701.929,0.877675
702.029,0.874274
702.129,0.870828
702.229,0.867338
702.329,0.863803
702.429,0.860226
702.529,0.856606
702.629,0.852944
702.729,0.849241
702.829,0.845498
702.929,0.841715
703.029,0.837892
703.129,0.834032
703.229,0.830133
703.329,0.826198
703.429,0.822226
703.529,0.818218
703.629,0.814176
703.729,0.810099
703.829,0.805989
703.929,0.801846
704.029,0.797671
704.129,0.793465
704.229,0.789228
704.329,0.784961
704.429,0.780665
704.529,0.77634
704.629,0.771988
704.729,0.767609
704.829,0.763204
704.929,0.758773
705.029,0.754318
705.129,0.749838
705.229,0.745336
705.329,0.74081
705.429,0.736263
705.529,0.731695
705.629,0.727107
705.729,0.722499
705.829,0.717872
705.929,0.713227
706.029,0.708565
706.129,0.703886
706.229,0.699192
706.329,0.694482
706.429,0.689758
706.529,0.68502
706.629,0.680269
706.729,0.675506
706.829,0.670731
706.929,0.665946
707.029,0.66115
707.129,0.656345
707.229,0.651532
707.329,0.64671
707.429,0.641882
707.529,0.637046
707.629,0.632205
707.729,0.627359
707.829,0.622508
707.929,0.617653
708.029,0.612795
708.129,0.607935
708.229,0.603073
708.329,0.59821
708.429,0.593346
708.529,0.588483
708.629,0.58362
708.729,0.578759
708.829,0.5739
708.929,0.569044
709.029,0.564191
709.129,0.559342
709.229,0.554497
709.329,0.549658
709.429,0.544824
709.529,0.539997
709.629,0.535177
709.729,0.530365
709.829,0.52556
709.929,0.520764
710.029,0.515978
710.129,0.511201
710.229,0.506435
710.329,0.501679
710.429,0.496935
710.529,0.492203
710.629,0.487483
710.729,0.482777
710.829,0.478083
710.929,0.473404
711.029,0.468739
711.129,0.464089
711.229,0.459455
711.329,0.454836
711.429,0.450234
711.529,0.445648
711.629,0.44108
711.729,0.436529
711.829,0.431996
711.929,0.427482
712.029,0.422986
712.129,0.41851
712.229,0.414054
712.329,0.409617
712.429,0.405201
712.529,0.400806
712.629,0.396432
712.729,0.39208
712.829,0.387749
712.929,0.383441
713.029,0.379155
713.129,0.374892
713.229,0.370652
713.329,0.366435
713.429,0.362242
713.529,0.358073
713.629,0.353929
713.729,0.349809
713.829,0.345714
713.929,0.341644
714.029,0.337599
714.129,0.33358
714.229,0.329587
714.329,0.32562
714.429,0.321679
714.529,0.317764
714.629,0.313876
714.729,0.310015
714.829,0.306181
714.929,0.302374
715.029,0.298594
715.129,0.294842
715.229,0.291118
715.329,0.287421
715.429,0.283753
715.529,0.280112
715.629,0.2765
715.729,0.272916
715.829,0.26936
715.929,0.265833
716.029,0.262335
716.129,0.258865
716.229,0.255425
716.329,0.252013
716.429,0.24863
716.529,0.245276
716.629,0.241951
716.729,0.238655
716.829,0.235388
716.929,0.232151
717.029,0.228942
717.129,0.225763
717.229,0.222613
717.329,0.219493
717.429,0.216402
717.529,0.21334
717.629,0.210307
717.729,0.207303
717.829,0.204329
717.929,0.201384
718.029,0.198468
718.129,0.195581
718.229,0.192724
718.329,0.189895
718.429,0.187096
718.529,0.184325
718.629,0.181583
718.729,0.17887
718.829,0.176186
718.929,0.17353
719.029,0.170903
719.129,0.168305
719.229,0.165735
719.329,0.163193
719.429,0.16068
719.529,0.158194
719.629,0.155737
719.729,0.153308
719.829,0.150906
719.929,0.148532
720.029,0.146186
720.129,0.143867
720.229,0.141575
720.329,0.139311
720.429,0.137074
720.529,0.134863
720.629,0.132679
720.729,0.130522
720.829,0.128392
720.929,0.126288
721.029,0.12421
721.129,0.122157
721.229,0.120131
721.329,0.118131
721.429,0.116156
721.529,0.114206
721.629,0.112282
721.729,0.110383
721.829,0.108508
721.929,0.106659
722.029,0.104833
722.129,0.103032
722.229,0.101256
722.329,0.099503
722.429,0.0977741
722.529,0.0960688
722.629,0.0943869
722.729,0.0927283
722.829,0.0910927
722.929,0.0894799
723.029,0.0878899
723.129,0.0863223
723.229,0.084777
723.329,0.0832538
723.429,0.0817525
723.529,0.080273
723.629,0.0788149
723.729,0.0773781
723.829,0.0759624
723.929,0.0745677
724.029,0.0731936
724.129,0.0718401
724.229,0.0705069
724.329,0.0691938
724.429,0.0679006
724.529,0.0666271
724.629,0.0653732
724.729,0.0641385
724.829,0.062923
724.929,0.0617263
725.029,0.0605484
725.129,0.059389
725.229,0.0582479
725.329,0.0571248
725.429,0.0560197
725.529,0.0549323
725.629,0.0538624
725.729,0.0528098
725.829,0.0517743
725.929,0.0507558
726.029,0.0497539
726.129,0.0487685
726.229,0.0477995
726.329,0.0468466
726.429,0.0459096
726.529,0.0449883
726.629,0.0440826
726.729,0.0431922
726.829,0.042317
726.929,0.0414567
727.029,0.0406112
727.129,0.0397803
727.229,0.0389638
727.329,0.0381615
727.429,0.0373732
727.529,0.0365988
727.629,0.035838
727.729,0.0350906
727.829,0.0343566
727.929,0.0336356
728.029,0.0329276
728.129,0.0322324
728.229,0.0315497
728.329,0.0308794
728.429,0.0302213
728.529,0.0295752
728.629,0.0289411
728.729,0.0283186
728.829,0.0277077
728.929,0.0271081
729.029,0.0265198
729.129,0.0259424
729.229,0.025376
729.329,0.0248202
729.429,0.024275
729.529,0.0237402
729.629,0.0232156
729.729,0.0227011
729.829,0.0221965
729.929,0.0217017
730.029,0.0212165
730.129,0.0207407
730.229,0.0202743
730.329,0.019817
730.429,0.0193688
730.529,0.0189294
730.629,0.0184987
730.729,0.0180767
730.829,0.017663
730.929,0.0172577
731.029,0.0168606
731.129,0.0164715
731.229,0.0160903
731.329,0.0157169
731.429,0.0153511
731.529,0.0149928
731.629,0.0146419
731.729,0.0142983
731.829,0.0139618
731.929,0.0136323
732.029,0.0133097
732.129,0.0129938
732.229,0.0126846
732.329,0.0123819
732.429,0.0120857
732.529,0.0117957
732.629,0.0115119
732.729,0.0112342
732.829,0.0109625
732.929,0.0106966
733.029,0.0104365
733.129,0.010182
733.229,0.0099331
733.329,0.0096896
733.429,0.00945143
733.529,0.00921851
733.629,0.00899072
733.729,0.00876797
733.829,0.00855018
733.929,0.00833723
734.029,0.00812904
734.129,0.00792552
734.229,0.00772658
734.329,0.00753213
734.429,0.00734209
734.529,0.00715636
734.629,0.00697486
734.729,0.00679751
734.829,0.00662422
734.929,0.00645492
735.029,0.00628953
735.129,0.00612797
735.229,0.00597015
735.329,0.00581601
735.429,0.00566547
735.529,0.00551846
735.629,0.00537491
735.729,0.00523474
735.829,0.00509788
735.929,0.00496427
736.029,0.00483384
736.129,0.00470652
736.229,0.00458224
736.329,0.00446095
736.429,0.00434258
736.529,0.00422707
736.629,0.00411436
736.729,0.00400438
736.829,0.00389708
736.929,0.0037924
737.029,0.00369029
737.129,0.00359069
737.229,0.00349354
737.329,0.00339879
737.429,0.00330639
737.529,0.00321629
737.629,0.00312844
737.729,0.00304278
737.829,0.00295927
737.929,0.00287785
738.029,0.00279849
738.129,0.00272114
738.229,0.00264575
738.329,0.00257227
738.429,0.00250067
738.529,0.0024309
738.629,0.00236291
738.729,0.00229668
738.829,0.00223215
738.929,0.00216929
739.029,0.00210806
739.129,0.00204842
739.229,0.00199033
739.329,0.00193377
739.429,0.00187868
739.529,0.00182504
739.629,0.00177282
739.729,0.00172197
739.829,0.00167247
739.929,0.00162428
740.029,0.00157738
740.129,0.00153173
740.229,0.0014873
740.329,0.00144406
740.429,0.00140199
740.529,0.00136105
740.629,0.00132122
740.729,0.00128246
740.829,0.00124477
740.929,0.00120809
741.029,0.00117242
741.129,0.00113773
741.229,0.00110399
741.329,0.00107118
741.429,0.00103928
741.529,0.00100825
741.629,0.000978091
741.729,0.000948768
741.829,0.000920263
741.929,0.000892554
742.029,0.000865622
742.129,0.000839446
742.229,0.000814007
742.329,0.000789287
742.429,0.000765265
742.529,0.000741926
742.629,0.00071925
742.729,0.00069722
742.829,0.00067582
742.929,0.000655033
743.029,0.000634843
743.129,0.000615234
743.229,0.000596191
743.329,0.000577699
743.429,0.000559743
743.529,0.000542308
743.629,0.000525382
743.729,0.00050895
743.829,0.000492998
743.929,0.000477515
744.029,0.000462487
744.129,0.000447902
744.229,0.000433748
744.329,0.000420014
744.429,0.000406686
744.529,0.000393756
744.629,0.000381211
744.729,0.000369041
744.829,0.000357236
744.929,0.000345785
745.029,0.000334679
745.129,0.000323908
745.229,0.000313462
745.329,0.000303333
745.429,0.000293512
745.529,0.00028399
745.629,0.000274758
745.729,0.000265809
745.829,0.000257134
745.929,0.000248725
746.029,0.000240575
746.129,0.000232677
746.229,0.000225023
746.329,0.000217606
746.429,0.00021042
746.529,0.000203457
746.629,0.000196712
746.729,0.000190177
746.829,0.000183848
746.929,0.000177717
747.029,0.000171779
747.129,0.000166028
747.229,0.000160459
747.329,0.000155067
747.429,0.000149845
747.529,0.00014479
747.629,0.000139896
747.729,0.000135159
747.829,0.000130573
747.929,0.000126134
748.029,0.000121838
748.129,0.00011768
748.229,0.000113657
748.329,0.000109764
748.429,0.000105997
748.529,0.000102353
748.629,9.8827e-05
748.729,9.54164e-05
748.829,9.21173e-05
748.929,8.89263e-05
749.029,8.58401e-05
749.129,8.28555e-05
749.229,7.99693e-05
749.329,7.71785e-05
749.429,7.44801e-05
749.529,7.18712e-05
749.629,6.93491e-05
749.729,6.6911e-05
749.829,6.45543e-05
749.929,6.22764e-05
750.029,6.00749e-05
750.129,5.79474e-05
750.229,5.58914e-05
750.329,5.39048e-05
750.429,5.19853e-05
750.529,5.01309e-05
750.629,4.83393e-05
750.729,4.66087e-05
750.829,4.4937e-05
750.929,4.33223e-05
751.029,4.17629e-05
751.129,4.0257e-05
751.229,3.88027e-05
751.329,3.73985e-05
751.429,3.60427e-05
751.529,3.47337e-05
751.629,3.347e-05
751.729,3.22501e-05
751.829,3.10726e-05
751.929,2.99361e-05
752.029,2.88392e-05
752.129,2.77807e-05
752.229,2.67592e-05
752.329,2.57736e-05
752.429,2.48226e-05
752.529,2.39051e-05
752.629,2.302e-05
752.729,2.21662e-05
752.829,2.13426e-05
752.929,2.05482e-05
753.029,1.97821e-05
753.129,1.90432e-05
753.229,1.83308e-05
753.329,1.76438e-05
753.429,1.69814e-05
753.529,1.63428e-05
753.629,1.57271e-05
753.729,1.51337e-05
753.829,1.45616e-05
753.929,1.40103e-05
754.029,1.34789e-05
754.129,1.29668e-05
754.229,1.24733e-05
754.329,1.19978e-05
754.429,1.15397e-05
754.529,1.10983e-05
754.629,1.06731e-05
754.729,1.02635e-05
754.829,9.8689e-06
754.929,9.48888e-06
755.029,9.12288e-06
755.129,8.77041e-06
755.229,8.431e-06
755.329,8.10417e-06
755.429,7.7895e-06
755.529,7.48654e-06
755.629,7.19489e-06